File: data/Reflectance_measurements/Reflectance_2019_material/13/13_1.txt
Unit Serial No : 240-IM0P2424-EU
Integration Time : 10 ms
Time Average: 10
Binning Average: 2
FFT Smoothing: 0%
Project Name : RPS900-R
Sample Name :  SM240-IMOP2424-EU
Measurement No : 1
Measurement Time : 06/03/2019   14:52:58

Wavelength(nm)	Wavenumber(1/cm)	Transmittance(%)
300.0000      	33333.3    	15.00901
301.0000      	33222.6    	15.37787
302.0000      	33112.6    	14.43056
303.0000      	33003.3    	13.69424
304.0000      	32894.7    	13.01614
305.0000      	32786.9    	12.73385
306.0000      	32679.7    	11.70402
307.0000      	32573.3    	10.73156
308.0000      	32467.5    	11.18683
309.0000      	32362.5    	10.69042
310.0000      	32258.1    	11.77342
311.0000      	32154.3    	11.64909
312.0000      	32051.3    	10.60167
313.0000      	31948.9    	9.92046
314.0000      	31847.1    	10.10591
315.0000      	31746    	10.36852
316.0000      	31645.6    	10.79240
317.0000      	31545.7    	10.18312
318.0000      	31446.5    	9.53902
319.0000      	31348    	8.68992
320.0000      	31250    	8.84772
321.0000      	31152.6    	8.96187
322.0000      	31055.9    	9.06467
323.0000      	30959.8    	8.77447
324.0000      	30864.2    	8.22643
325.0000      	30769.2    	8.21615
326.0000      	30674.8    	8.48562
327.0000      	30581    	8.68660
328.0000      	30487.8    	8.08488
329.0000      	30395.1    	7.82965
330.0000      	30303    	7.55924
331.0000      	30211.5    	8.13935
332.0000      	30120.5    	8.58453
333.0000      	30030    	8.35737
334.0000      	29940.1    	8.08046
335.0000      	29850.7    	7.85499
336.0000      	29761.9    	8.10983
337.0000      	29673.6    	8.27501
338.0000      	29585.8    	8.43149
339.0000      	29498.5    	8.03050
340.0000      	29411.8    	7.65828
341.0000      	29325.5    	7.82622
342.0000      	29239.8    	8.29858
343.0000      	29154.5    	8.28376
344.0000      	29069.8    	8.23688
345.0000      	28985.5    	8.23816
346.0000      	28901.7    	8.18901
347.0000      	28818.4    	8.31865
348.0000      	28735.6    	8.82311
349.0000      	28653.3    	9.04363
350.0000      	28571.4    	9.05350
351.0000      	28490    	9.08610
352.0000      	28409.1    	9.15674
353.0000      	28328.6    	9.54660
354.0000      	28248.6    	9.90719
355.0000      	28169    	9.81642
356.0000      	28089.9    	10.07445
357.0000      	28011.2    	10.17480
358.0000      	27933    	10.67946
359.0000      	27855.2    	11.06384
360.0000      	27777.8    	11.55599
361.0000      	27700.8    	11.73459
362.0000      	27624.3    	11.87043
363.0000      	27548.2    	11.90827
364.0000      	27472.5    	11.87269
365.0000      	27397.3    	12.12081
366.0000      	27322.4    	12.42070
367.0000      	27248    	12.63124
368.0000      	27173.9    	12.85317
369.0000      	27100.3    	13.23637
370.0000      	27027    	13.63676
371.0000      	26954.2    	13.78030
372.0000      	26881.7    	14.01784
373.0000      	26809.7    	14.03691
374.0000      	26738    	14.31397
375.0000      	26666.7    	14.70025
376.0000      	26595.7    	15.31611
377.0000      	26525.2    	15.73970
378.0000      	26455    	16.11598
379.0000      	26385.2    	16.48326
380.0000      	26315.8    	17.00692
381.0000      	26246.7    	17.46223
382.0000      	26178    	17.77928
383.0000      	26109.7    	18.25874
384.0000      	26041.7    	18.44295
385.0000      	25974    	18.77584
386.0000      	25906.7    	19.30542
387.0000      	25839.8    	20.01577
388.0000      	25773.2    	20.34658
389.0000      	25706.9    	20.84267
390.0000      	25641    	21.26983
391.0000      	25575.4    	21.63972
392.0000      	25510.2    	21.77300
393.0000      	25445.3    	22.33862
394.0000      	25380.7    	22.86568
395.0000      	25316.5    	23.34746
396.0000      	25252.5    	23.75868
397.0000      	25188.9    	24.49028
398.0000      	25125.6    	25.29704
399.0000      	25062.7    	26.01952
400.0000      	25000    	26.65804
401.0000      	24937.7    	27.36268
402.0000      	24875.6    	27.77557
403.0000      	24813.9    	28.74281
404.0000      	24752.5    	29.88182
405.0000      	24691.4    	31.05247
406.0000      	24630.5    	32.04930
407.0000      	24570    	33.26798
408.0000      	24509.8    	34.51193
409.0000      	24449.9    	35.64674
410.0000      	24390.2    	36.84263
411.0000      	24330.9    	38.10620
412.0000      	24271.8    	38.75175
413.0000      	24213.1    	39.91595
414.0000      	24154.6    	41.07797
415.0000      	24096.4    	42.09957
416.0000      	24038.5    	43.04588
417.0000      	23980.8    	43.72186
418.0000      	23923.4    	44.00204
419.0000      	23866.3    	44.44759
420.0000      	23809.5    	44.85186
421.0000      	23753    	45.16919
422.0000      	23696.7    	45.45312
423.0000      	23640.7    	45.75922
424.0000      	23584.9    	46.14187
425.0000      	23529.4    	46.65062
426.0000      	23474.2    	47.27036
427.0000      	23419.2    	47.64697
428.0000      	23364.5    	47.86431
429.0000      	23310    	48.17592
430.0000      	23255.8    	48.39961
431.0000      	23201.9    	48.88379
432.0000      	23148.1    	49.29175
433.0000      	23094.7    	49.61127
434.0000      	23041.5    	49.79749
435.0000      	22988.5    	50.18792
436.0000      	22935.8    	50.51205
437.0000      	22883.3    	50.83518
438.0000      	22831.1    	50.84997
439.0000      	22779    	50.95036
440.0000      	22727.3    	50.97244
441.0000      	22675.7    	50.95321
442.0000      	22624.4    	50.93311
443.0000      	22573.4    	51.06093
444.0000      	22522.5    	50.97269
445.0000      	22471.9    	50.82733
446.0000      	22421.5    	50.62252
447.0000      	22371.4    	50.40411
448.0000      	22321.4    	50.06147
449.0000      	22271.7    	49.64534
450.0000      	22222.2    	49.27305
451.0000      	22172.9    	49.21763
452.0000      	22123.9    	49.37534
453.0000      	22075.1    	49.39460
454.0000      	22026.4    	49.42301
455.0000      	21978    	49.39714
456.0000      	21929.8    	49.38716
457.0000      	21881.8    	49.20897
458.0000      	21834.1    	48.97821
459.0000      	21786.5    	48.94762
460.0000      	21739.1    	49.14723
461.0000      	21692    	49.20169
462.0000      	21645    	49.14608
463.0000      	21598.3    	49.09684
464.0000      	21551.7    	49.16647
465.0000      	21505.4    	49.32320
466.0000      	21459.2    	49.27737
467.0000      	21413.3    	49.11035
468.0000      	21367.5    	49.01504
469.0000      	21322    	49.16102
470.0000      	21276.6    	49.25894
471.0000      	21231.4    	49.37743
472.0000      	21186.4    	49.51701
473.0000      	21141.6    	49.76516
474.0000      	21097    	49.98157
475.0000      	21052.6    	50.06536
476.0000      	21008.4    	50.20095
477.0000      	20964.4    	50.29190
478.0000      	20920.5    	50.34756
479.0000      	20876.8    	50.34829
480.0000      	20833.3    	50.43666
481.0000      	20790    	50.59550
482.0000      	20746.9    	50.72743
483.0000      	20703.9    	50.78282
484.0000      	20661.2    	50.80867
485.0000      	20618.6    	50.84045
486.0000      	20576.1    	50.91262
487.0000      	20533.9    	51.00951
488.0000      	20491.8    	51.13264
489.0000      	20449.9    	51.32481
490.0000      	20408.2    	51.39272
491.0000      	20366.6    	51.49633
492.0000      	20325.2    	51.59603
493.0000      	20284    	51.77708
494.0000      	20242.9    	51.89285
495.0000      	20202    	51.98130
496.0000      	20161.3    	52.07398
497.0000      	20120.7    	52.08625
498.0000      	20080.3    	52.15444
499.0000      	20040.1    	52.23794
500.0000      	20000    	52.36151
501.0000      	19960.1    	52.26659
502.0000      	19920.3    	52.17231
503.0000      	19880.7    	52.19081
504.0000      	19841.3    	52.27124
505.0000      	19802    	52.17315
506.0000      	19762.8    	52.12543
507.0000      	19723.9    	51.96519
508.0000      	19685    	51.87632
509.0000      	19646.4    	51.74545
510.0000      	19607.8    	51.57397
511.0000      	19569.5    	51.36319
512.0000      	19531.2    	51.08731
513.0000      	19493.2    	50.92979
514.0000      	19455.3    	50.64911
515.0000      	19417.5    	50.48072
516.0000      	19379.8    	50.23159
517.0000      	19342.4    	49.89964
518.0000      	19305    	49.50146
519.0000      	19267.8    	49.31703
520.0000      	19230.8    	49.03424
521.0000      	19193.9    	48.66922
522.0000      	19157.1    	48.29105
523.0000      	19120.5    	47.88996
524.0000      	19084    	47.54518
525.0000      	19047.6    	47.11263
526.0000      	19011.4    	46.96713
527.0000      	18975.3    	46.69123
528.0000      	18939.4    	46.45516
529.0000      	18903.6    	46.21703
530.0000      	18867.9    	45.99398
531.0000      	18832.4    	45.77462
532.0000      	18797    	45.53732
533.0000      	18761.7    	45.44098
534.0000      	18726.6    	45.31944
535.0000      	18691.6    	45.18053
536.0000      	18656.7    	44.99970
537.0000      	18622    	44.87234
538.0000      	18587.4    	44.88915
539.0000      	18552.9    	44.90236
540.0000      	18518.5    	44.88051
541.0000      	18484.3    	44.77509
542.0000      	18450.2    	44.72434
543.0000      	18416.2    	44.66472
544.0000      	18382.4    	44.58500
545.0000      	18348.6    	44.56338
546.0000      	18315    	44.56333
547.0000      	18281.5    	44.54229
548.0000      	18248.2    	44.47484
549.0000      	18214.9    	44.32685
550.0000      	18181.8    	44.20334
551.0000      	18148.8    	44.11854
552.0000      	18115.9    	43.84775
553.0000      	18083.2    	43.65446
554.0000      	18050.5    	43.45279
555.0000      	18018    	43.15090
556.0000      	17985.6    	42.78555
557.0000      	17953.3    	42.39928
558.0000      	17921.1    	42.24798
559.0000      	17889.1    	41.96361
560.0000      	17857.1    	41.72519
561.0000      	17825.3    	41.47209
562.0000      	17793.6    	41.13788
563.0000      	17762    	40.77026
564.0000      	17730.5    	40.57167
565.0000      	17699.1    	40.23613
566.0000      	17667.8    	39.96347
567.0000      	17636.7    	39.79568
568.0000      	17605.6    	39.62659
569.0000      	17574.7    	39.46156
570.0000      	17543.9    	39.40837
571.0000      	17513.1    	39.39436
572.0000      	17482.5    	39.50692
573.0000      	17452    	39.58929
574.0000      	17421.6    	39.69741
575.0000      	17391.3    	39.77900
576.0000      	17361.1    	40.01944
577.0000      	17331    	40.31940
578.0000      	17301    	40.72247
579.0000      	17271.2    	41.25755
580.0000      	17241.4    	41.81931
581.0000      	17211.7    	42.11104
582.0000      	17182.1    	42.67340
583.0000      	17152.7    	43.06577
584.0000      	17123.3    	43.42749
585.0000      	17094    	43.85869
586.0000      	17064.8    	44.29211
587.0000      	17035.8    	44.51310
588.0000      	17006.8    	44.79976
589.0000      	16977.9    	45.10498
590.0000      	16949.2    	45.44233
591.0000      	16920.5    	45.85118
592.0000      	16891.9    	46.16285
593.0000      	16863.4    	46.29124
594.0000      	16835    	46.43975
595.0000      	16806.7    	46.70333
596.0000      	16778.5    	46.87332
597.0000      	16750.4    	47.03741
598.0000      	16722.4    	46.99322
599.0000      	16694.5    	46.92574
600.0000      	16666.7    	46.84861
601.0000      	16638.9    	46.92405
602.0000      	16611.3    	47.11834
603.0000      	16583.7    	47.13174
604.0000      	16556.3    	47.08621
605.0000      	16528.9    	47.02428
606.0000      	16501.7    	47.14299
607.0000      	16474.5    	47.17118
608.0000      	16447.4    	47.07263
609.0000      	16420.4    	46.93085
610.0000      	16393.4    	46.93895
611.0000      	16366.6    	46.99119
612.0000      	16339.9    	47.07993
613.0000      	16313.2    	47.00652
614.0000      	16286.6    	47.02901
615.0000      	16260.2    	47.03516
616.0000      	16233.8    	47.01368
617.0000      	16207.5    	46.94552
618.0000      	16181.2    	46.84715
619.0000      	16155.1    	46.90880
620.0000      	16129    	46.89572
621.0000      	16103.1    	46.90337
622.0000      	16077.2    	46.86335
623.0000      	16051.4    	46.81896
624.0000      	16025.6    	46.68682
625.0000      	16000    	46.64278
626.0000      	15974.4    	46.73872
627.0000      	15949    	46.89735
628.0000      	15923.6    	47.02174
629.0000      	15898.3    	47.05349
630.0000      	15873    	47.05059
631.0000      	15847.9    	47.08499
632.0000      	15822.8    	47.13181
633.0000      	15797.8    	47.23221
634.0000      	15772.9    	47.36326
635.0000      	15748    	47.48199
636.0000      	15723.3    	47.48246
637.0000      	15698.6    	47.54986
638.0000      	15674    	47.65598
639.0000      	15649.5    	47.78822
640.0000      	15625    	47.85149
641.0000      	15600.6    	47.97414
642.0000      	15576.3    	48.06819
643.0000      	15552.1    	48.29203
644.0000      	15528    	48.51550
645.0000      	15503.9    	48.73405
646.0000      	15479.9    	48.81917
647.0000      	15456    	48.86739
648.0000      	15432.1    	49.00090
649.0000      	15408.3    	49.21233
650.0000      	15384.6    	49.54000
651.0000      	15361    	49.76860
652.0000      	15337.4    	49.92167
653.0000      	15313.9    	49.96004
654.0000      	15290.5    	50.10366
655.0000      	15267.2    	50.41200
656.0000      	15243.9    	50.65725
657.0000      	15220.7    	50.74822
658.0000      	15197.6    	50.84176
659.0000      	15174.5    	51.00135
660.0000      	15151.5    	51.38068
661.0000      	15128.6    	51.51110
662.0000      	15105.7    	51.58576
663.0000      	15083    	51.56185
664.0000      	15060.2    	51.58064
665.0000      	15037.6    	51.59142
666.0000      	15015    	51.68570
667.0000      	14992.5    	51.86791
668.0000      	14970.1    	51.93752
669.0000      	14947.7    	51.94513
670.0000      	14925.4    	51.79504
671.0000      	14903.1    	51.78633
672.0000      	14881    	51.82284
673.0000      	14858.8    	51.84830
674.0000      	14836.8    	51.83656
675.0000      	14814.8    	51.79757
676.0000      	14792.9    	51.73943
677.0000      	14771    	51.71857
678.0000      	14749.3    	51.62534
679.0000      	14727.5    	51.54654
680.0000      	14705.9    	51.37869
681.0000      	14684.3    	51.35833
682.0000      	14662.8    	51.21719
683.0000      	14641.3    	51.14602
684.0000      	14619.9    	51.01374
685.0000      	14598.5    	50.90107
686.0000      	14577.3    	50.81690
687.0000      	14556    	50.63201
688.0000      	14534.9    	50.61016
689.0000      	14513.8    	50.50239
690.0000      	14492.8    	50.61972
691.0000      	14471.8    	50.60076
692.0000      	14450.9    	50.45902
693.0000      	14430    	50.39714
694.0000      	14409.2    	50.39623
695.0000      	14388.5    	50.44516
696.0000      	14367.8    	50.44207
697.0000      	14347.2    	50.27384
698.0000      	14326.6    	50.26797
699.0000      	14306.2    	50.14424
700.0000      	14285.7    	50.29383
701.0000      	14265.3    	50.27944
702.0000      	14245    	50.25697
703.0000      	14224.8    	50.22494
704.0000      	14204.5    	50.13342
705.0000      	14184.4    	50.00652
706.0000      	14164.3    	49.64200
707.0000      	14144.3    	49.68155
708.0000      	14124.3    	49.72523
709.0000      	14104.4    	49.79832
710.0000      	14084.5    	49.72149
711.0000      	14064.7    	49.62945
712.0000      	14044.9    	49.40166
713.0000      	14025.2    	49.37314
714.0000      	14005.6    	49.33083
715.0000      	13986    	49.51889
716.0000      	13966.5    	49.47289
717.0000      	13947    	49.48562
718.0000      	13927.6    	49.45178
719.0000      	13908.2    	49.51007
720.0000      	13888.9    	49.54294
721.0000      	13869.6    	49.78167
722.0000      	13850.4    	49.97013
723.0000      	13831.3    	50.02041
724.0000      	13812.2    	50.08842
725.0000      	13793.1    	50.16311
726.0000      	13774.1    	50.33289
727.0000      	13755.2    	50.25334
728.0000      	13736.3    	50.32413
729.0000      	13717.4    	50.61520
730.0000      	13698.6    	50.76925
731.0000      	13679.9    	50.74128
732.0000      	13661.2    	50.77959
733.0000      	13642.6    	51.02567
734.0000      	13624    	51.20473
735.0000      	13605.4    	51.34695
736.0000      	13587    	51.53857
737.0000      	13568.5    	51.72025
738.0000      	13550.1    	52.11716
739.0000      	13531.8    	52.36263
740.0000      	13513.5    	52.40351
741.0000      	13495.3    	52.48896
742.0000      	13477.1    	52.60891
743.0000      	13459    	53.16060
744.0000      	13440.9    	53.58125
745.0000      	13422.8    	53.74817
746.0000      	13404.8    	53.64154
747.0000      	13386.9    	53.78279
748.0000      	13369    	54.04033
749.0000      	13351.1    	54.35734
750.0000      	13333.3    	54.80064
751.0000      	13315.6    	55.07770
752.0000      	13297.9    	55.30869
753.0000      	13280.2    	55.59199
754.0000      	13262.6    	55.97493
755.0000      	13245    	56.36378
756.0000      	13227.5    	56.53485
757.0000      	13210    	56.62447
758.0000      	13192.6    	56.81734
759.0000      	13175.2    	56.93367
760.0000      	13157.9    	57.40049
761.0000      	13140.6    	57.59016
762.0000      	13123.4    	57.82472
763.0000      	13106.2    	57.83047
764.0000      	13089    	57.81708
765.0000      	13071.9    	57.80632
766.0000      	13054.8    	57.69167
767.0000      	13037.8    	57.76355
768.0000      	13020.8    	57.95506
769.0000      	13003.9    	58.14200
770.0000      	12987    	58.20771
771.0000      	12970.2    	58.22629
772.0000      	12953.4    	58.26725
773.0000      	12936.6    	58.25526
774.0000      	12919.9    	58.35386
775.0000      	12903.2    	58.32840
776.0000      	12886.6    	58.29604
777.0000      	12870    	58.30397
778.0000      	12853.5    	58.27030
779.0000      	12837    	58.48718
780.0000      	12820.5    	58.35083
781.0000      	12804.1    	58.34512
782.0000      	12787.7    	58.25364
783.0000      	12771.4    	58.48951
784.0000      	12755.1    	58.48626
785.0000      	12738.9    	58.60909
786.0000      	12722.6    	58.58438
787.0000      	12706.5    	58.58644
788.0000      	12690.4    	58.67706
789.0000      	12674.3    	58.35596
790.0000      	12658.2    	58.41211
791.0000      	12642.2    	58.48074
792.0000      	12626.3    	58.36495
793.0000      	12610.3    	58.22215
794.0000      	12594.5    	58.18593
795.0000      	12578.6    	58.42009
796.0000      	12562.8    	58.44437
797.0000      	12547.1    	58.65799
798.0000      	12531.3    	58.82826
799.0000      	12515.6    	58.95672
800.0000      	12500    	58.65282