File: data/Reflectance_measurements/Reflectance_2019_material/13/13_2 .txt
Unit Serial No : 240-IM0P2424-EU
Integration Time : 10 ms
Time Average: 10
Binning Average: 2
FFT Smoothing: 0%
Project Name : RPS900-R
Sample Name :  SM240-IMOP2424-EU
Measurement No : 1
Measurement Time : 06/03/2019   14:53:16

Wavelength(nm)	Wavenumber(1/cm)	Transmittance(%)
300.0000      	33333.3    	16.20990
301.0000      	33222.6    	15.73687
302.0000      	33112.6    	15.03380
303.0000      	33003.3    	14.24781
304.0000      	32894.7    	13.82339
305.0000      	32786.9    	14.31291
306.0000      	32679.7    	14.10506
307.0000      	32573.3    	12.68537
308.0000      	32467.5    	12.01713
309.0000      	32362.5    	11.28622
310.0000      	32258.1    	11.97989
311.0000      	32154.3    	11.83293
312.0000      	32051.3    	11.35681
313.0000      	31948.9    	10.59994
314.0000      	31847.1    	11.04884
315.0000      	31746    	11.30238
316.0000      	31645.6    	10.93650
317.0000      	31545.7    	10.24537
318.0000      	31446.5    	9.68823
319.0000      	31348    	9.26715
320.0000      	31250    	9.38550
321.0000      	31152.6    	9.48702
322.0000      	31055.9    	9.88300
323.0000      	30959.8    	9.42300
324.0000      	30864.2    	8.74229
325.0000      	30769.2    	8.39910
326.0000      	30674.8    	8.58462
327.0000      	30581    	9.27204
328.0000      	30487.8    	8.96456
329.0000      	30395.1    	8.86240
330.0000      	30303    	8.79943
331.0000      	30211.5    	8.88933
332.0000      	30120.5    	9.13844
333.0000      	30030    	9.11552
334.0000      	29940.1    	8.96347
335.0000      	29850.7    	8.56210
336.0000      	29761.9    	8.33443
337.0000      	29673.6    	8.81775
338.0000      	29585.8    	9.08638
339.0000      	29498.5    	8.78355
340.0000      	29411.8    	8.58781
341.0000      	29325.5    	8.77782
342.0000      	29239.8    	9.01026
343.0000      	29154.5    	8.94856
344.0000      	29069.8    	9.17776
345.0000      	28985.5    	9.45232
346.0000      	28901.7    	9.48212
347.0000      	28818.4    	9.41986
348.0000      	28735.6    	9.51391
349.0000      	28653.3    	9.72081
350.0000      	28571.4    	9.79921
351.0000      	28490    	9.97413
352.0000      	28409.1    	9.98807
353.0000      	28328.6    	10.15988
354.0000      	28248.6    	10.60016
355.0000      	28169    	10.91363
356.0000      	28089.9    	11.31708
357.0000      	28011.2    	11.33149
358.0000      	27933    	11.70918
359.0000      	27855.2    	12.01294
360.0000      	27777.8    	12.52146
361.0000      	27700.8    	12.64264
362.0000      	27624.3    	12.85265
363.0000      	27548.2    	12.93854
364.0000      	27472.5    	13.12643
365.0000      	27397.3    	13.40001
366.0000      	27322.4    	13.75108
367.0000      	27248    	14.05387
368.0000      	27173.9    	14.35846
369.0000      	27100.3    	14.76740
370.0000      	27027    	15.13298
371.0000      	26954.2    	15.29662
372.0000      	26881.7    	15.72427
373.0000      	26809.7    	15.88682
374.0000      	26738    	16.16213
375.0000      	26666.7    	16.50992
376.0000      	26595.7    	17.19778
377.0000      	26525.2    	17.69606
378.0000      	26455    	18.14081
379.0000      	26385.2    	18.67333
380.0000      	26315.8    	19.33628
381.0000      	26246.7    	19.85061
382.0000      	26178    	20.13808
383.0000      	26109.7    	20.63127
384.0000      	26041.7    	20.90998
385.0000      	25974    	21.34535
386.0000      	25906.7    	21.88474
387.0000      	25839.8    	22.64519
388.0000      	25773.2    	23.11404
389.0000      	25706.9    	23.69590
390.0000      	25641    	24.27856
391.0000      	25575.4    	24.80106
392.0000      	25510.2    	25.03974
393.0000      	25445.3    	25.54617
394.0000      	25380.7    	25.98904
395.0000      	25316.5    	26.50444
396.0000      	25252.5    	27.05663
397.0000      	25188.9    	27.79633
398.0000      	25125.6    	28.80120
399.0000      	25062.7    	29.82915
400.0000      	25000    	30.50081
401.0000      	24937.7    	31.22721
402.0000      	24875.6    	31.76488
403.0000      	24813.9    	33.06583
404.0000      	24752.5    	34.39293
405.0000      	24691.4    	35.63351
406.0000      	24630.5    	36.94225
407.0000      	24570    	38.37146
408.0000      	24509.8    	39.68901
409.0000      	24449.9    	40.90309
410.0000      	24390.2    	42.28177
411.0000      	24330.9    	43.98068
412.0000      	24271.8    	44.82397
413.0000      	24213.1    	46.42974
414.0000      	24154.6    	47.73631
415.0000      	24096.4    	48.75034
416.0000      	24038.5    	49.49237
417.0000      	23980.8    	50.26700
418.0000      	23923.4    	50.98192
419.0000      	23866.3    	51.69466
420.0000      	23809.5    	52.21507
421.0000      	23753    	52.51535
422.0000      	23696.7    	52.91507
423.0000      	23640.7    	53.40435
424.0000      	23584.9    	53.92533
425.0000      	23529.4    	54.39885
426.0000      	23474.2    	54.85043
427.0000      	23419.2    	55.28032
428.0000      	23364.5    	55.59876
429.0000      	23310    	56.03096
430.0000      	23255.8    	56.32813
431.0000      	23201.9    	57.00216
432.0000      	23148.1    	57.56916
433.0000      	23094.7    	58.04680
434.0000      	23041.5    	58.20842
435.0000      	22988.5    	58.51250
436.0000      	22935.8    	58.89606
437.0000      	22883.3    	59.38402
438.0000      	22831.1    	59.43143
439.0000      	22779    	59.49437
440.0000      	22727.3    	59.62182
441.0000      	22675.7    	59.62526
442.0000      	22624.4    	59.48719
443.0000      	22573.4    	59.57279
444.0000      	22522.5    	59.40545
445.0000      	22471.9    	59.30861
446.0000      	22421.5    	59.14742
447.0000      	22371.4    	58.99500
448.0000      	22321.4    	58.65556
449.0000      	22271.7    	58.30164
450.0000      	22222.2    	57.89207
451.0000      	22172.9    	57.46355
452.0000      	22123.9    	57.44899
453.0000      	22075.1    	57.60187
454.0000      	22026.4    	57.54354
455.0000      	21978    	57.49355
456.0000      	21929.8    	57.49403
457.0000      	21881.8    	57.49728
458.0000      	21834.1    	57.47402
459.0000      	21786.5    	57.33024
460.0000      	21739.1    	57.43278
461.0000      	21692    	57.55859
462.0000      	21645    	57.55277
463.0000      	21598.3    	57.41425
464.0000      	21551.7    	57.22025
465.0000      	21505.4    	57.36332
466.0000      	21459.2    	57.33027
467.0000      	21413.3    	57.25938
468.0000      	21367.5    	57.34558
469.0000      	21322    	57.53664
470.0000      	21276.6    	57.63142
471.0000      	21231.4    	57.74516
472.0000      	21186.4    	57.85249
473.0000      	21141.6    	58.08951
474.0000      	21097    	58.37663
475.0000      	21052.6    	58.59956
476.0000      	21008.4    	58.68721
477.0000      	20964.4    	58.71441
478.0000      	20920.5    	58.74770
479.0000      	20876.8    	58.76739
480.0000      	20833.3    	58.78888
481.0000      	20790    	58.76395
482.0000      	20746.9    	58.87630
483.0000      	20703.9    	59.02847
484.0000      	20661.2    	59.22889
485.0000      	20618.6    	59.29181
486.0000      	20576.1    	59.46151
487.0000      	20533.9    	59.67891
488.0000      	20491.8    	59.84809
489.0000      	20449.9    	59.83302
490.0000      	20408.2    	59.77747
491.0000      	20366.6    	59.89321
492.0000      	20325.2    	60.01296
493.0000      	20284    	60.20089
494.0000      	20242.9    	60.35494
495.0000      	20202    	60.42595
496.0000      	20161.3    	60.53625
497.0000      	20120.7    	60.63865
498.0000      	20080.3    	60.76282
499.0000      	20040.1    	60.83614
500.0000      	20000    	60.85682
501.0000      	19960.1    	60.76040
502.0000      	19920.3    	60.68614
503.0000      	19880.7    	60.79048
504.0000      	19841.3    	60.94111
505.0000      	19802    	60.79287
506.0000      	19762.8    	60.68030
507.0000      	19723.9    	60.49218
508.0000      	19685    	60.37175
509.0000      	19646.4    	60.18296
510.0000      	19607.8    	60.00756
511.0000      	19569.5    	59.78843
512.0000      	19531.2    	59.44983
513.0000      	19493.2    	59.25768
514.0000      	19455.3    	59.01425
515.0000      	19417.5    	58.76864
516.0000      	19379.8    	58.41018
517.0000      	19342.4    	57.98449
518.0000      	19305    	57.56536
519.0000      	19267.8    	57.36788
520.0000      	19230.8    	56.99237
521.0000      	19193.9    	56.59950
522.0000      	19157.1    	56.15848
523.0000      	19120.5    	55.68241
524.0000      	19084    	55.23986
525.0000      	19047.6    	54.81711
526.0000      	19011.4    	54.61530
527.0000      	18975.3    	54.21975
528.0000      	18939.4    	53.85351
529.0000      	18903.6    	53.67366
530.0000      	18867.9    	53.45696
531.0000      	18832.4    	53.17377
532.0000      	18797    	52.91640
533.0000      	18761.7    	52.84869
534.0000      	18726.6    	52.72211
535.0000      	18691.6    	52.51579
536.0000      	18656.7    	52.29746
537.0000      	18622    	52.10754
538.0000      	18587.4    	52.01745
539.0000      	18552.9    	51.97041
540.0000      	18518.5    	51.95703
541.0000      	18484.3    	51.88338
542.0000      	18450.2    	51.87716
543.0000      	18416.2    	51.79127
544.0000      	18382.4    	51.73819
545.0000      	18348.6    	51.72710
546.0000      	18315    	51.70034
547.0000      	18281.5    	51.64188
548.0000      	18248.2    	51.54291
549.0000      	18214.9    	51.38464
550.0000      	18181.8    	51.19364
551.0000      	18148.8    	51.07454
552.0000      	18115.9    	50.78580
553.0000      	18083.2    	50.50047
554.0000      	18050.5    	50.25894
555.0000      	18018    	49.95572
556.0000      	17985.6    	49.59057
557.0000      	17953.3    	49.19806
558.0000      	17921.1    	49.03037
559.0000      	17889.1    	48.59991
560.0000      	17857.1    	48.16545
561.0000      	17825.3    	47.78938
562.0000      	17793.6    	47.45142
563.0000      	17762    	47.05011
564.0000      	17730.5    	46.84031
565.0000      	17699.1    	46.51360
566.0000      	17667.8    	46.22462
567.0000      	17636.7    	45.94384
568.0000      	17605.6    	45.69946
569.0000      	17574.7    	45.49572
570.0000      	17543.9    	45.44382
571.0000      	17513.1    	45.35801
572.0000      	17482.5    	45.35769
573.0000      	17452    	45.42659
574.0000      	17421.6    	45.65143
575.0000      	17391.3    	45.77766
576.0000      	17361.1    	46.04151
577.0000      	17331    	46.37886
578.0000      	17301    	46.93073
579.0000      	17271.2    	47.57372
580.0000      	17241.4    	48.17299
581.0000      	17211.7    	48.49638
582.0000      	17182.1    	49.15298
583.0000      	17152.7    	49.66254
584.0000      	17123.3    	50.25016
585.0000      	17094    	50.91775
586.0000      	17064.8    	51.51592
587.0000      	17035.8    	51.74152
588.0000      	17006.8    	52.04749
589.0000      	16977.9    	52.33453
590.0000      	16949.2    	52.78049
591.0000      	16920.5    	53.28116
592.0000      	16891.9    	53.53918
593.0000      	16863.4    	53.65068
594.0000      	16835    	53.79916
595.0000      	16806.7    	54.03171
596.0000      	16778.5    	54.25792
597.0000      	16750.4    	54.49890
598.0000      	16722.4    	54.58174
599.0000      	16694.5    	54.58665
600.0000      	16666.7    	54.66114
601.0000      	16638.9    	54.73484
602.0000      	16611.3    	54.80867
603.0000      	16583.7    	54.74906
604.0000      	16556.3    	54.71763
605.0000      	16528.9    	54.63856
606.0000      	16501.7    	54.73630
607.0000      	16474.5    	54.71719
608.0000      	16447.4    	54.60027
609.0000      	16420.4    	54.55508
610.0000      	16393.4    	54.57044
611.0000      	16366.6    	54.64852
612.0000      	16339.9    	54.66264
613.0000      	16313.2    	54.63889
614.0000      	16286.6    	54.60640
615.0000      	16260.2    	54.57147
616.0000      	16233.8    	54.55362
617.0000      	16207.5    	54.54599
618.0000      	16181.2    	54.44258
619.0000      	16155.1    	54.50029
620.0000      	16129    	54.51356
621.0000      	16103.1    	54.52000
622.0000      	16077.2    	54.36870
623.0000      	16051.4    	54.37632
624.0000      	16025.6    	54.41281
625.0000      	16000    	54.39823
626.0000      	15974.4    	54.38373
627.0000      	15949    	54.42871
628.0000      	15923.6    	54.55476
629.0000      	15898.3    	54.67230
630.0000      	15873    	54.63596
631.0000      	15847.9    	54.70784
632.0000      	15822.8    	54.72418
633.0000      	15797.8    	54.85072
634.0000      	15772.9    	54.87574
635.0000      	15748    	54.99791
636.0000      	15723.3    	55.08894
637.0000      	15698.6    	55.19296
638.0000      	15674    	55.28562
639.0000      	15649.5    	55.47100
640.0000      	15625    	55.74020
641.0000      	15600.6    	55.89349
642.0000      	15576.3    	55.97144
643.0000      	15552.1    	56.17859
644.0000      	15528    	56.44815
645.0000      	15503.9    	56.78668
646.0000      	15479.9    	57.03000
647.0000      	15456    	57.13846
648.0000      	15432.1    	57.29414
649.0000      	15408.3    	57.44146
650.0000      	15384.6    	57.77042
651.0000      	15361    	58.03522
652.0000      	15337.4    	58.32618
653.0000      	15313.9    	58.35754
654.0000      	15290.5    	58.48218
655.0000      	15267.2    	58.77723
656.0000      	15243.9    	59.11782
657.0000      	15220.7    	59.23634
658.0000      	15197.6    	59.36193
659.0000      	15174.5    	59.53390
660.0000      	15151.5    	59.73262
661.0000      	15128.6    	59.81480
662.0000      	15105.7    	60.06681
663.0000      	15083    	60.17407
664.0000      	15060.2    	60.24608
665.0000      	15037.6    	60.26012
666.0000      	15015    	60.38297
667.0000      	14992.5    	60.44414
668.0000      	14970.1    	60.48919
669.0000      	14947.7    	60.52620
670.0000      	14925.4    	60.49025
671.0000      	14903.1    	60.49978
672.0000      	14881    	60.41742
673.0000      	14858.8    	60.43817
674.0000      	14836.8    	60.29046
675.0000      	14814.8    	60.18199
676.0000      	14792.9    	60.14829
677.0000      	14771    	60.14954
678.0000      	14749.3    	60.17701
679.0000      	14727.5    	60.08410
680.0000      	14705.9    	59.96032
681.0000      	14684.3    	59.77186
682.0000      	14662.8    	59.77606
683.0000      	14641.3    	59.72402
684.0000      	14619.9    	59.67658
685.0000      	14598.5    	59.44104
686.0000      	14577.3    	59.31589
687.0000      	14556    	59.06119
688.0000      	14534.9    	58.98396
689.0000      	14513.8    	58.78982
690.0000      	14492.8    	58.83792
691.0000      	14471.8    	58.77250
692.0000      	14450.9    	58.66854
693.0000      	14430    	58.64311
694.0000      	14409.2    	58.89176
695.0000      	14388.5    	59.03861
696.0000      	14367.8    	58.90801
697.0000      	14347.2    	58.62233
698.0000      	14326.6    	58.65844
699.0000      	14306.2    	58.49381
700.0000      	14285.7    	58.59316
701.0000      	14265.3    	58.44072
702.0000      	14245    	58.33729
703.0000      	14224.8    	58.17637
704.0000      	14204.5    	58.18262
705.0000      	14184.4    	58.18860
706.0000      	14164.3    	58.00578
707.0000      	14144.3    	57.89803
708.0000      	14124.3    	57.85725
709.0000      	14104.4    	57.87321
710.0000      	14084.5    	57.76736
711.0000      	14064.7    	57.57416
712.0000      	14044.9    	57.30475
713.0000      	14025.2    	57.24495
714.0000      	14005.6    	57.27153
715.0000      	13986    	57.44521
716.0000      	13966.5    	57.54189
717.0000      	13947    	57.65150
718.0000      	13927.6    	57.62315
719.0000      	13908.2    	57.72432
720.0000      	13888.9    	57.78878
721.0000      	13869.6    	58.03747
722.0000      	13850.4    	58.15782
723.0000      	13831.3    	58.25692
724.0000      	13812.2    	58.31313
725.0000      	13793.1    	58.33226
726.0000      	13774.1    	58.50251
727.0000      	13755.2    	58.53032
728.0000      	13736.3    	58.64875
729.0000      	13717.4    	58.73543
730.0000      	13698.6    	58.96411
731.0000      	13679.9    	59.19088
732.0000      	13661.2    	59.28845
733.0000      	13642.6    	59.53409
734.0000      	13624    	59.83486
735.0000      	13605.4    	59.99231
736.0000      	13587    	59.98037
737.0000      	13568.5    	60.11168
738.0000      	13550.1    	60.63405
739.0000      	13531.8    	60.91059
740.0000      	13513.5    	61.00346
741.0000      	13495.3    	61.18536
742.0000      	13477.1    	61.41172
743.0000      	13459    	62.17348
744.0000      	13440.9    	62.79647
745.0000      	13422.8    	62.97093
746.0000      	13404.8    	63.03561
747.0000      	13386.9    	63.19667
748.0000      	13369    	63.59668
749.0000      	13351.1    	63.98537
750.0000      	13333.3    	64.39041
751.0000      	13315.6    	64.54068
752.0000      	13297.9    	64.62194
753.0000      	13280.2    	64.97765
754.0000      	13262.6    	65.43307
755.0000      	13245    	65.99857
756.0000      	13227.5    	66.20007
757.0000      	13210    	66.38570
758.0000      	13192.6    	66.41663
759.0000      	13175.2    	66.79625
760.0000      	13157.9    	67.41383
761.0000      	13140.6    	67.72388
762.0000      	13123.4    	67.80477
763.0000      	13106.2    	67.72308
764.0000      	13089    	67.79278
765.0000      	13071.9    	67.87056
766.0000      	13054.8    	67.95403
767.0000      	13037.8    	68.10033
768.0000      	13020.8    	68.23237
769.0000      	13003.9    	68.23766
770.0000      	12987    	68.22868
771.0000      	12970.2    	68.33334
772.0000      	12953.4    	68.42813
773.0000      	12936.6    	68.34958
774.0000      	12919.9    	68.37861
775.0000      	12903.2    	68.38235
776.0000      	12886.6    	68.49539
777.0000      	12870    	68.53626
778.0000      	12853.5    	68.51990
779.0000      	12837    	68.71471
780.0000      	12820.5    	68.65103
781.0000      	12804.1    	68.53522
782.0000      	12787.7    	68.47986
783.0000      	12771.4    	68.62649
784.0000      	12755.1    	68.71365
785.0000      	12738.9    	68.91740
786.0000      	12722.6    	68.95914
787.0000      	12706.5    	68.47376
788.0000      	12690.4    	68.74416
789.0000      	12674.3    	68.95014
790.0000      	12658.2    	69.24615
791.0000      	12642.2    	68.50274
792.0000      	12626.3    	68.04194
793.0000      	12610.3    	68.02897
794.0000      	12594.5    	68.32951
795.0000      	12578.6    	68.48212
796.0000      	12562.8    	68.69436
797.0000      	12547.1    	68.82986
798.0000      	12531.3    	68.51131
799.0000      	12515.6    	68.02409
800.0000      	12500    	67.91245