File: data/Reflectance_measurements/Reflectance_2019_material/13/13_3.txt
Unit Serial No : 240-IM0P2424-EU
Integration Time : 10 ms
Time Average: 10
Binning Average: 2
FFT Smoothing: 0%
Project Name : RPS900-R
Sample Name :  SM240-IMOP2424-EU
Measurement No : 1
Measurement Time : 06/03/2019   14:53:32

Wavelength(nm)	Wavenumber(1/cm)	Transmittance(%)
300.0000      	33333.3    	2.40393
301.0000      	33222.6    	2.52524
302.0000      	33112.6    	2.01996
303.0000      	33003.3    	1.71798
304.0000      	32894.7    	1.05325
305.0000      	32786.9    	1.57557
306.0000      	32679.7    	2.01002
307.0000      	32573.3    	1.53583
308.0000      	32467.5    	1.80027
309.0000      	32362.5    	1.42667
310.0000      	32258.1    	2.18153
311.0000      	32154.3    	2.03974
312.0000      	32051.3    	1.28091
313.0000      	31948.9    	0.85154
314.0000      	31847.1    	0.79041
315.0000      	31746    	1.18313
316.0000      	31645.6    	1.69873
317.0000      	31545.7    	1.15173
318.0000      	31446.5    	0.81646
319.0000      	31348    	0.40477
320.0000      	31250    	0.58210
321.0000      	31152.6    	0.62124
322.0000      	31055.9    	1.10877
323.0000      	30959.8    	0.80671
324.0000      	30864.2    	0.40996
325.0000      	30769.2    	0.40914
326.0000      	30674.8    	0.52097
327.0000      	30581    	0.38763
328.0000      	30487.8    	0.34321
329.0000      	30395.1    	0.63847
330.0000      	30303    	0.55852
331.0000      	30211.5    	0.80799
332.0000      	30120.5    	1.24681
333.0000      	30030    	1.35403
334.0000      	29940.1    	1.56036
335.0000      	29850.7    	1.13486
336.0000      	29761.9    	0.82797
337.0000      	29673.6    	0.88963
338.0000      	29585.8    	1.07530
339.0000      	29498.5    	0.73264
340.0000      	29411.8    	0.58032
341.0000      	29325.5    	0.61131
342.0000      	29239.8    	0.95270
343.0000      	29154.5    	0.84490
344.0000      	29069.8    	0.98328
345.0000      	28985.5    	0.95470
346.0000      	28901.7    	0.90011
347.0000      	28818.4    	0.80194
348.0000      	28735.6    	0.97859
349.0000      	28653.3    	1.02231
350.0000      	28571.4    	1.06810
351.0000      	28490    	0.90403
352.0000      	28409.1    	0.67383
353.0000      	28328.6    	0.77916
354.0000      	28248.6    	0.80888
355.0000      	28169    	0.56555
356.0000      	28089.9    	0.80140
357.0000      	28011.2    	0.60797
358.0000      	27933    	0.56614
359.0000      	27855.2    	0.66203
360.0000      	27777.8    	0.87712
361.0000      	27700.8    	0.86853
362.0000      	27624.3    	0.69359
363.0000      	27548.2    	0.63187
364.0000      	27472.5    	0.66777
365.0000      	27397.3    	0.76942
366.0000      	27322.4    	0.68779
367.0000      	27248    	0.54184
368.0000      	27173.9    	0.49071
369.0000      	27100.3    	0.59842
370.0000      	27027    	0.70071
371.0000      	26954.2    	0.72089
372.0000      	26881.7    	0.85110
373.0000      	26809.7    	0.76002
374.0000      	26738    	0.54272
375.0000      	26666.7    	0.46146
376.0000      	26595.7    	0.68882
377.0000      	26525.2    	0.77805
378.0000      	26455    	0.61427
379.0000      	26385.2    	0.49997
380.0000      	26315.8    	0.59530
381.0000      	26246.7    	0.51613
382.0000      	26178    	0.50204
383.0000      	26109.7    	0.60432
384.0000      	26041.7    	0.54206
385.0000      	25974    	0.57207
386.0000      	25906.7    	0.69668
387.0000      	25839.8    	0.91176
388.0000      	25773.2    	0.76420
389.0000      	25706.9    	0.70980
390.0000      	25641    	0.68018
391.0000      	25575.4    	0.63526
392.0000      	25510.2    	0.70681
393.0000      	25445.3    	0.74749
394.0000      	25380.7    	0.76169
395.0000      	25316.5    	0.70339
396.0000      	25252.5    	0.75852
397.0000      	25188.9    	0.70103
398.0000      	25125.6    	0.67072
399.0000      	25062.7    	0.69899
400.0000      	25000    	0.67861
401.0000      	24937.7    	0.69636
402.0000      	24875.6    	0.68326
403.0000      	24813.9    	0.70316
404.0000      	24752.5    	0.71199
405.0000      	24691.4    	0.76417
406.0000      	24630.5    	0.68139
407.0000      	24570    	0.71129
408.0000      	24509.8    	0.67602
409.0000      	24449.9    	0.61503
410.0000      	24390.2    	0.68522
411.0000      	24330.9    	0.65251
412.0000      	24271.8    	0.62460
413.0000      	24213.1    	0.58384
414.0000      	24154.6    	0.66626
415.0000      	24096.4    	0.75413
416.0000      	24038.5    	0.66845
417.0000      	23980.8    	0.62489
418.0000      	23923.4    	0.56427
419.0000      	23866.3    	0.60572
420.0000      	23809.5    	0.62401
421.0000      	23753    	0.64396
422.0000      	23696.7    	0.63828
423.0000      	23640.7    	0.65802
424.0000      	23584.9    	0.70612
425.0000      	23529.4    	0.62954
426.0000      	23474.2    	0.73497
427.0000      	23419.2    	0.69479
428.0000      	23364.5    	0.66944
429.0000      	23310    	0.65715
430.0000      	23255.8    	0.67965
431.0000      	23201.9    	0.71279
432.0000      	23148.1    	0.68703
433.0000      	23094.7    	0.69563
434.0000      	23041.5    	0.64473
435.0000      	22988.5    	0.63247
436.0000      	22935.8    	0.63585
437.0000      	22883.3    	0.70910
438.0000      	22831.1    	0.71916
439.0000      	22779    	0.68233
440.0000      	22727.3    	0.66574
441.0000      	22675.7    	0.61670
442.0000      	22624.4    	0.68576
443.0000      	22573.4    	0.75866
444.0000      	22522.5    	0.78245
445.0000      	22471.9    	0.63774
446.0000      	22421.5    	0.57935
447.0000      	22371.4    	0.63393
448.0000      	22321.4    	0.65130
449.0000      	22271.7    	0.65801
450.0000      	22222.2    	0.59874
451.0000      	22172.9    	0.52567
452.0000      	22123.9    	0.53409
453.0000      	22075.1    	0.58166
454.0000      	22026.4    	0.65545
455.0000      	21978    	0.68542
456.0000      	21929.8    	0.72100
457.0000      	21881.8    	0.72404
458.0000      	21834.1    	0.66231
459.0000      	21786.5    	0.67310
460.0000      	21739.1    	0.64050
461.0000      	21692    	0.58261
462.0000      	21645    	0.56317
463.0000      	21598.3    	0.55379
464.0000      	21551.7    	0.53550
465.0000      	21505.4    	0.59678
466.0000      	21459.2    	0.61854
467.0000      	21413.3    	0.59997
468.0000      	21367.5    	0.61666
469.0000      	21322    	0.66853
470.0000      	21276.6    	0.67495
471.0000      	21231.4    	0.65121
472.0000      	21186.4    	0.65565
473.0000      	21141.6    	0.62413
474.0000      	21097    	0.59036
475.0000      	21052.6    	0.55550
476.0000      	21008.4    	0.59331
477.0000      	20964.4    	0.61925
478.0000      	20920.5    	0.62053
479.0000      	20876.8    	0.59551
480.0000      	20833.3    	0.61283
481.0000      	20790    	0.62363
482.0000      	20746.9    	0.64644
483.0000      	20703.9    	0.63910
484.0000      	20661.2    	0.63973
485.0000      	20618.6    	0.63375
486.0000      	20576.1    	0.62672
487.0000      	20533.9    	0.59351
488.0000      	20491.8    	0.58376
489.0000      	20449.9    	0.60258
490.0000      	20408.2    	0.60268
491.0000      	20366.6    	0.61093
492.0000      	20325.2    	0.62038
493.0000      	20284    	0.64219
494.0000      	20242.9    	0.65361
495.0000      	20202    	0.63876
496.0000      	20161.3    	0.61344
497.0000      	20120.7    	0.58097
498.0000      	20080.3    	0.58966
499.0000      	20040.1    	0.60874
500.0000      	20000    	0.63494
501.0000      	19960.1    	0.64655
502.0000      	19920.3    	0.63512
503.0000      	19880.7    	0.59956
504.0000      	19841.3    	0.61257
505.0000      	19802    	0.63360
506.0000      	19762.8    	0.64063
507.0000      	19723.9    	0.64397
508.0000      	19685    	0.63117
509.0000      	19646.4    	0.62781
510.0000      	19607.8    	0.63151
511.0000      	19569.5    	0.65350
512.0000      	19531.2    	0.62886
513.0000      	19493.2    	0.61861
514.0000      	19455.3    	0.60723
515.0000      	19417.5    	0.62382
516.0000      	19379.8    	0.61965
517.0000      	19342.4    	0.62743
518.0000      	19305    	0.61689
519.0000      	19267.8    	0.61731
520.0000      	19230.8    	0.61711
521.0000      	19193.9    	0.61139
522.0000      	19157.1    	0.63459
523.0000      	19120.5    	0.62900
524.0000      	19084    	0.62203
525.0000      	19047.6    	0.59306
526.0000      	19011.4    	0.58717
527.0000      	18975.3    	0.61642
528.0000      	18939.4    	0.61581
529.0000      	18903.6    	0.63878
530.0000      	18867.9    	0.64929
531.0000      	18832.4    	0.63653
532.0000      	18797    	0.61975
533.0000      	18761.7    	0.62073
534.0000      	18726.6    	0.63937
535.0000      	18691.6    	0.65139
536.0000      	18656.7    	0.61685
537.0000      	18622    	0.61375
538.0000      	18587.4    	0.62295
539.0000      	18552.9    	0.61629
540.0000      	18518.5    	0.62543
541.0000      	18484.3    	0.60817
542.0000      	18450.2    	0.59887
543.0000      	18416.2    	0.62601
544.0000      	18382.4    	0.61902
545.0000      	18348.6    	0.61901
546.0000      	18315    	0.61905
547.0000      	18281.5    	0.63288
548.0000      	18248.2    	0.61662
549.0000      	18214.9    	0.61234
550.0000      	18181.8    	0.65266
551.0000      	18148.8    	0.65071
552.0000      	18115.9    	0.62788
553.0000      	18083.2    	0.62549
554.0000      	18050.5    	0.65953
555.0000      	18018    	0.66408
556.0000      	17985.6    	0.65309
557.0000      	17953.3    	0.63407
558.0000      	17921.1    	0.63971
559.0000      	17889.1    	0.62785
560.0000      	17857.1    	0.63036
561.0000      	17825.3    	0.61823
562.0000      	17793.6    	0.61408
563.0000      	17762    	0.62658
564.0000      	17730.5    	0.63397
565.0000      	17699.1    	0.63384
566.0000      	17667.8    	0.63735
567.0000      	17636.7    	0.62808
568.0000      	17605.6    	0.62871
569.0000      	17574.7    	0.65474
570.0000      	17543.9    	0.66497
571.0000      	17513.1    	0.61572
572.0000      	17482.5    	0.60320
573.0000      	17452    	0.61655
574.0000      	17421.6    	0.64093
575.0000      	17391.3    	0.65108
576.0000      	17361.1    	0.64378
577.0000      	17331    	0.60929
578.0000      	17301    	0.59748
579.0000      	17271.2    	0.63870
580.0000      	17241.4    	0.66802
581.0000      	17211.7    	0.66715
582.0000      	17182.1    	0.67149
583.0000      	17152.7    	0.62423
584.0000      	17123.3    	0.63758
585.0000      	17094    	0.63735
586.0000      	17064.8    	0.62237
587.0000      	17035.8    	0.61819
588.0000      	17006.8    	0.61519
589.0000      	16977.9    	0.62353
590.0000      	16949.2    	0.62570
591.0000      	16920.5    	0.61384
592.0000      	16891.9    	0.63605
593.0000      	16863.4    	0.65338
594.0000      	16835    	0.67742
595.0000      	16806.7    	0.67488
596.0000      	16778.5    	0.65634
597.0000      	16750.4    	0.69525
598.0000      	16722.4    	0.68969
599.0000      	16694.5    	0.66247
600.0000      	16666.7    	0.61495
601.0000      	16638.9    	0.61036
602.0000      	16611.3    	0.66062
603.0000      	16583.7    	0.69182
604.0000      	16556.3    	0.68136
605.0000      	16528.9    	0.64582
606.0000      	16501.7    	0.66551
607.0000      	16474.5    	0.64095
608.0000      	16447.4    	0.62442
609.0000      	16420.4    	0.64804
610.0000      	16393.4    	0.66100
611.0000      	16366.6    	0.66628
612.0000      	16339.9    	0.60429
613.0000      	16313.2    	0.59877
614.0000      	16286.6    	0.62923
615.0000      	16260.2    	0.65236
616.0000      	16233.8    	0.64861
617.0000      	16207.5    	0.60969
618.0000      	16181.2    	0.61799
619.0000      	16155.1    	0.65173
620.0000      	16129    	0.66284
621.0000      	16103.1    	0.66171
622.0000      	16077.2    	0.63699
623.0000      	16051.4    	0.61975
624.0000      	16025.6    	0.60718
625.0000      	16000    	0.67791
626.0000      	15974.4    	0.69653
627.0000      	15949    	0.67826
628.0000      	15923.6    	0.62122
629.0000      	15898.3    	0.67974
630.0000      	15873    	0.69483
631.0000      	15847.9    	0.69347
632.0000      	15822.8    	0.69010
633.0000      	15797.8    	0.70936
634.0000      	15772.9    	0.66384
635.0000      	15748    	0.67014
636.0000      	15723.3    	0.61143
637.0000      	15698.6    	0.62705
638.0000      	15674    	0.62743
639.0000      	15649.5    	0.67775
640.0000      	15625    	0.70172
641.0000      	15600.6    	0.65900
642.0000      	15576.3    	0.63866
643.0000      	15552.1    	0.60652
644.0000      	15528    	0.60692
645.0000      	15503.9    	0.62658
646.0000      	15479.9    	0.67160
647.0000      	15456    	0.67191
648.0000      	15432.1    	0.67282
649.0000      	15408.3    	0.69978
650.0000      	15384.6    	0.70028
651.0000      	15361    	0.67050
652.0000      	15337.4    	0.62203
653.0000      	15313.9    	0.64219
654.0000      	15290.5    	0.65124
655.0000      	15267.2    	0.69436
656.0000      	15243.9    	0.73003
657.0000      	15220.7    	0.74990
658.0000      	15197.6    	0.74988
659.0000      	15174.5    	0.68747
660.0000      	15151.5    	0.69278
661.0000      	15128.6    	0.64180
662.0000      	15105.7    	0.65670
663.0000      	15083    	0.66293
664.0000      	15060.2    	0.64817
665.0000      	15037.6    	0.63125
666.0000      	15015    	0.64240
667.0000      	14992.5    	0.62135
668.0000      	14970.1    	0.65264
669.0000      	14947.7    	0.69814
670.0000      	14925.4    	0.70653
671.0000      	14903.1    	0.67738
672.0000      	14881    	0.64954
673.0000      	14858.8    	0.67779
674.0000      	14836.8    	0.67999
675.0000      	14814.8    	0.69805
676.0000      	14792.9    	0.70946
677.0000      	14771    	0.73330
678.0000      	14749.3    	0.74236
679.0000      	14727.5    	0.69221
680.0000      	14705.9    	0.64789
681.0000      	14684.3    	0.61180
682.0000      	14662.8    	0.55391
683.0000      	14641.3    	0.55323
684.0000      	14619.9    	0.64027
685.0000      	14598.5    	0.69505
686.0000      	14577.3    	0.70713
687.0000      	14556    	0.65408
688.0000      	14534.9    	0.64913
689.0000      	14513.8    	0.62792
690.0000      	14492.8    	0.69311
691.0000      	14471.8    	0.67975
692.0000      	14450.9    	0.63428
693.0000      	14430    	0.65582
694.0000      	14409.2    	0.67256
695.0000      	14388.5    	0.66759
696.0000      	14367.8    	0.67999
697.0000      	14347.2    	0.73599
698.0000      	14326.6    	0.73559
699.0000      	14306.2    	0.70032
700.0000      	14285.7    	0.73337
701.0000      	14265.3    	0.73692
702.0000      	14245    	0.74235
703.0000      	14224.8    	0.74083
704.0000      	14204.5    	0.80409
705.0000      	14184.4    	0.84717
706.0000      	14164.3    	0.72339
707.0000      	14144.3    	0.68618
708.0000      	14124.3    	0.73212
709.0000      	14104.4    	0.79648
710.0000      	14084.5    	0.83823
711.0000      	14064.7    	0.81654
712.0000      	14044.9    	0.78302
713.0000      	14025.2    	0.75726
714.0000      	14005.6    	0.74742
715.0000      	13986    	0.75352
716.0000      	13966.5    	0.77523
717.0000      	13947    	0.78531
718.0000      	13927.6    	0.76920
719.0000      	13908.2    	0.72096
720.0000      	13888.9    	0.68819
721.0000      	13869.6    	0.76960
722.0000      	13850.4    	0.74426
723.0000      	13831.3    	0.72946
724.0000      	13812.2    	0.69421
725.0000      	13793.1    	0.68982
726.0000      	13774.1    	0.85756
727.0000      	13755.2    	0.83197
728.0000      	13736.3    	0.81924
729.0000      	13717.4    	0.75261
730.0000      	13698.6    	0.77803
731.0000      	13679.9    	0.81804
732.0000      	13661.2    	0.86971
733.0000      	13642.6    	0.86061
734.0000      	13624    	0.88206
735.0000      	13605.4    	0.85035
736.0000      	13587    	0.77621
737.0000      	13568.5    	0.78337
738.0000      	13550.1    	0.88439
739.0000      	13531.8    	0.86746
740.0000      	13513.5    	0.89151
741.0000      	13495.3    	0.82700
742.0000      	13477.1    	0.82812
743.0000      	13459    	0.82263
744.0000      	13440.9    	0.83678
745.0000      	13422.8    	0.87544
746.0000      	13404.8    	0.80198
747.0000      	13386.9    	0.85043
748.0000      	13369    	0.88690
749.0000      	13351.1    	0.86614
750.0000      	13333.3    	0.94419
751.0000      	13315.6    	0.97208
752.0000      	13297.9    	0.88018
753.0000      	13280.2    	0.90753
754.0000      	13262.6    	0.89060
755.0000      	13245    	0.97626
756.0000      	13227.5    	0.94231
757.0000      	13210    	0.87103
758.0000      	13192.6    	0.78341
759.0000      	13175.2    	0.90920
760.0000      	13157.9    	0.91759
761.0000      	13140.6    	1.02714
762.0000      	13123.4    	0.97293
763.0000      	13106.2    	0.99185
764.0000      	13089    	0.97093
765.0000      	13071.9    	0.95940
766.0000      	13054.8    	0.88005
767.0000      	13037.8    	0.85057
768.0000      	13020.8    	0.81360
769.0000      	13003.9    	0.68068
770.0000      	12987    	0.65948
771.0000      	12970.2    	0.86256
772.0000      	12953.4    	0.97868
773.0000      	12936.6    	1.00003
774.0000      	12919.9    	1.01008
775.0000      	12903.2    	1.03366
776.0000      	12886.6    	1.00238
777.0000      	12870    	0.83498
778.0000      	12853.5    	0.75028
779.0000      	12837    	0.94925
780.0000      	12820.5    	1.10137
781.0000      	12804.1    	1.10036
782.0000      	12787.7    	1.05841
783.0000      	12771.4    	1.26579
784.0000      	12755.1    	1.29887
785.0000      	12738.9    	1.20549
786.0000      	12722.6    	1.12068
787.0000      	12706.5    	1.05676
788.0000      	12690.4    	1.10633
789.0000      	12674.3    	1.02544
790.0000      	12658.2    	1.11645
791.0000      	12642.2    	0.99208
792.0000      	12626.3    	0.88084
793.0000      	12610.3    	0.87059
794.0000      	12594.5    	1.06412
795.0000      	12578.6    	1.11700
796.0000      	12562.8    	1.11171
797.0000      	12547.1    	1.25128
798.0000      	12531.3    	1.03939
799.0000      	12515.6    	0.92548
800.0000      	12500    	1.03229