File: data/Reflectance_measurements/Reflectance_2019_material/75/75_1.txt
Unit Serial No : 240-IM0P2424-EU
Integration Time : 10 ms
Time Average: 10
Binning Average: 2
FFT Smoothing: 0%
Project Name : RPS900-R
Sample Name :  SM240-IMOP2424-EU
Measurement No : 1
Measurement Time : 06/03/2019   16:45:30

Wavelength(nm)	Wavenumber(1/cm)	Transmittance(%)
300.0000      	33333.3    	8.14677
301.0000      	33222.6    	6.80947
302.0000      	33112.6    	6.53233
303.0000      	33003.3    	6.41972
304.0000      	32894.7    	7.14510
305.0000      	32786.9    	7.84967
306.0000      	32679.7    	8.25968
307.0000      	32573.3    	7.70890
308.0000      	32467.5    	6.99813
309.0000      	32362.5    	6.98584
310.0000      	32258.1    	6.86098
311.0000      	32154.3    	7.42274
312.0000      	32051.3    	7.73682
313.0000      	31948.9    	6.96892
314.0000      	31847.1    	6.19001
315.0000      	31746    	6.31302
316.0000      	31645.6    	6.39042
317.0000      	31545.7    	6.10355
318.0000      	31446.5    	5.91381
319.0000      	31348    	5.58356
320.0000      	31250    	5.89356
321.0000      	31152.6    	6.03634
322.0000      	31055.9    	6.18051
323.0000      	30959.8    	5.88751
324.0000      	30864.2    	5.98276
325.0000      	30769.2    	5.62518
326.0000      	30674.8    	5.51873
327.0000      	30581    	4.96180
328.0000      	30487.8    	5.06793
329.0000      	30395.1    	5.24524
330.0000      	30303    	5.18002
331.0000      	30211.5    	5.54021
332.0000      	30120.5    	5.75331
333.0000      	30030    	5.56759
334.0000      	29940.1    	5.37398
335.0000      	29850.7    	4.88975
336.0000      	29761.9    	4.93204
337.0000      	29673.6    	4.99558
338.0000      	29585.8    	5.21133
339.0000      	29498.5    	5.37133
340.0000      	29411.8    	5.50299
341.0000      	29325.5    	5.27297
342.0000      	29239.8    	5.33346
343.0000      	29154.5    	5.50223
344.0000      	29069.8    	5.57338
345.0000      	28985.5    	5.33342
346.0000      	28901.7    	4.69702
347.0000      	28818.4    	4.73287
348.0000      	28735.6    	4.74330
349.0000      	28653.3    	5.16087
350.0000      	28571.4    	5.23048
351.0000      	28490    	4.95878
352.0000      	28409.1    	4.84974
353.0000      	28328.6    	5.23240
354.0000      	28248.6    	5.31142
355.0000      	28169    	5.26673
356.0000      	28089.9    	5.20420
357.0000      	28011.2    	5.00249
358.0000      	27933    	4.98494
359.0000      	27855.2    	5.15131
360.0000      	27777.8    	5.33055
361.0000      	27700.8    	5.29927
362.0000      	27624.3    	5.18072
363.0000      	27548.2    	5.24748
364.0000      	27472.5    	5.23793
365.0000      	27397.3    	5.42602
366.0000      	27322.4    	5.52164
367.0000      	27248    	5.39075
368.0000      	27173.9    	5.45569
369.0000      	27100.3    	5.46081
370.0000      	27027    	5.49487
371.0000      	26954.2    	5.45148
372.0000      	26881.7    	5.37949
373.0000      	26809.7    	5.31855
374.0000      	26738    	5.35588
375.0000      	26666.7    	5.41616
376.0000      	26595.7    	5.49647
377.0000      	26525.2    	5.72947
378.0000      	26455    	5.75040
379.0000      	26385.2    	5.79873
380.0000      	26315.8    	5.94674
381.0000      	26246.7    	5.98318
382.0000      	26178    	6.00960
383.0000      	26109.7    	6.13030
384.0000      	26041.7    	6.10009
385.0000      	25974    	6.17290
386.0000      	25906.7    	6.23990
387.0000      	25839.8    	6.37773
388.0000      	25773.2    	6.55340
389.0000      	25706.9    	6.50936
390.0000      	25641    	6.54514
391.0000      	25575.4    	6.81489
392.0000      	25510.2    	6.87599
393.0000      	25445.3    	6.83529
394.0000      	25380.7    	6.93604
395.0000      	25316.5    	7.05653
396.0000      	25252.5    	7.02318
397.0000      	25188.9    	7.13479
398.0000      	25125.6    	7.31022
399.0000      	25062.7    	7.59722
400.0000      	25000    	7.68289
401.0000      	24937.7    	7.81047
402.0000      	24875.6    	7.86456
403.0000      	24813.9    	7.93470
404.0000      	24752.5    	8.05758
405.0000      	24691.4    	8.20891
406.0000      	24630.5    	8.27280
407.0000      	24570    	8.21269
408.0000      	24509.8    	8.32246
409.0000      	24449.9    	8.50663
410.0000      	24390.2    	8.58730
411.0000      	24330.9    	8.68459
412.0000      	24271.8    	8.79436
413.0000      	24213.1    	8.93086
414.0000      	24154.6    	8.91397
415.0000      	24096.4    	8.90663
416.0000      	24038.5    	9.01622
417.0000      	23980.8    	9.05285
418.0000      	23923.4    	9.04954
419.0000      	23866.3    	9.08990
420.0000      	23809.5    	9.17874
421.0000      	23753    	9.25123
422.0000      	23696.7    	9.35239
423.0000      	23640.7    	9.34203
424.0000      	23584.9    	9.30493
425.0000      	23529.4    	9.41591
426.0000      	23474.2    	9.51699
427.0000      	23419.2    	9.66014
428.0000      	23364.5    	9.57760
429.0000      	23310    	9.59654
430.0000      	23255.8    	9.64554
431.0000      	23201.9    	9.78177
432.0000      	23148.1    	9.90475
433.0000      	23094.7    	9.95356
434.0000      	23041.5    	9.90624
435.0000      	22988.5    	9.91694
436.0000      	22935.8    	9.97607
437.0000      	22883.3    	10.12312
438.0000      	22831.1    	10.18335
439.0000      	22779    	10.29157
440.0000      	22727.3    	10.21422
441.0000      	22675.7    	10.27472
442.0000      	22624.4    	10.46096
443.0000      	22573.4    	10.59210
444.0000      	22522.5    	10.61563
445.0000      	22471.9    	10.58397
446.0000      	22421.5    	10.59871
447.0000      	22371.4    	10.61991
448.0000      	22321.4    	10.72928
449.0000      	22271.7    	10.82032
450.0000      	22222.2    	10.78181
451.0000      	22172.9    	10.73608
452.0000      	22123.9    	10.76737
453.0000      	22075.1    	10.90703
454.0000      	22026.4    	11.02024
455.0000      	21978    	11.05453
456.0000      	21929.8    	11.11814
457.0000      	21881.8    	11.16583
458.0000      	21834.1    	11.25443
459.0000      	21786.5    	11.36279
460.0000      	21739.1    	11.47413
461.0000      	21692    	11.51324
462.0000      	21645    	11.53901
463.0000      	21598.3    	11.59209
464.0000      	21551.7    	11.67437
465.0000      	21505.4    	11.79155
466.0000      	21459.2    	11.87679
467.0000      	21413.3    	11.93778
468.0000      	21367.5    	12.03094
469.0000      	21322    	12.18490
470.0000      	21276.6    	12.26610
471.0000      	21231.4    	12.39080
472.0000      	21186.4    	12.53562
473.0000      	21141.6    	12.66765
474.0000      	21097    	12.72429
475.0000      	21052.6    	12.83709
476.0000      	21008.4    	13.00845
477.0000      	20964.4    	13.19513
478.0000      	20920.5    	13.25604
479.0000      	20876.8    	13.43036
480.0000      	20833.3    	13.57447
481.0000      	20790    	13.70971
482.0000      	20746.9    	13.86806
483.0000      	20703.9    	14.05946
484.0000      	20661.2    	14.17739
485.0000      	20618.6    	14.24933
486.0000      	20576.1    	14.37768
487.0000      	20533.9    	14.51681
488.0000      	20491.8    	14.66697
489.0000      	20449.9    	14.81622
490.0000      	20408.2    	14.95686
491.0000      	20366.6    	15.10599
492.0000      	20325.2    	15.20099
493.0000      	20284    	15.32205
494.0000      	20242.9    	15.41918
495.0000      	20202    	15.50578
496.0000      	20161.3    	15.59800
497.0000      	20120.7    	15.70833
498.0000      	20080.3    	15.77816
499.0000      	20040.1    	15.83488
500.0000      	20000    	15.89814
501.0000      	19960.1    	15.95355
502.0000      	19920.3    	15.96355
503.0000      	19880.7    	15.98820
504.0000      	19841.3    	16.02621
505.0000      	19802    	16.02264
506.0000      	19762.8    	15.99774
507.0000      	19723.9    	15.87952
508.0000      	19685    	15.76384
509.0000      	19646.4    	15.65071
510.0000      	19607.8    	15.52144
511.0000      	19569.5    	15.33199
512.0000      	19531.2    	15.10244
513.0000      	19493.2    	15.00311
514.0000      	19455.3    	14.79800
515.0000      	19417.5    	14.53618
516.0000      	19379.8    	14.28391
517.0000      	19342.4    	14.02001
518.0000      	19305    	13.72742
519.0000      	19267.8    	13.57662
520.0000      	19230.8    	13.28150
521.0000      	19193.9    	13.00459
522.0000      	19157.1    	12.69331
523.0000      	19120.5    	12.40134
524.0000      	19084    	12.13033
525.0000      	19047.6    	11.85790
526.0000      	19011.4    	11.74875
527.0000      	18975.3    	11.47808
528.0000      	18939.4    	11.25153
529.0000      	18903.6    	11.04213
530.0000      	18867.9    	10.87070
531.0000      	18832.4    	10.73302
532.0000      	18797    	10.62255
533.0000      	18761.7    	10.55526
534.0000      	18726.6    	10.44958
535.0000      	18691.6    	10.35205
536.0000      	18656.7    	10.27030
537.0000      	18622    	10.17914
538.0000      	18587.4    	10.11806
539.0000      	18552.9    	10.10197
540.0000      	18518.5    	10.04984
541.0000      	18484.3    	10.02838
542.0000      	18450.2    	10.01804
543.0000      	18416.2    	9.98858
544.0000      	18382.4    	9.96622
545.0000      	18348.6    	9.95584
546.0000      	18315    	9.89483
547.0000      	18281.5    	9.85099
548.0000      	18248.2    	9.81540
549.0000      	18214.9    	9.76771
550.0000      	18181.8    	9.71611
551.0000      	18148.8    	9.66624
552.0000      	18115.9    	9.56803
553.0000      	18083.2    	9.47901
554.0000      	18050.5    	9.35755
555.0000      	18018    	9.17627
556.0000      	17985.6    	9.00702
557.0000      	17953.3    	8.86891
558.0000      	17921.1    	8.80768
559.0000      	17889.1    	8.64870
560.0000      	17857.1    	8.41673
561.0000      	17825.3    	8.24845
562.0000      	17793.6    	8.16346
563.0000      	17762    	8.08471
564.0000      	17730.5    	8.02604
565.0000      	17699.1    	7.91532
566.0000      	17667.8    	7.81009
567.0000      	17636.7    	7.74705
568.0000      	17605.6    	7.74026
569.0000      	17574.7    	7.72656
570.0000      	17543.9    	7.72517
571.0000      	17513.1    	7.71950
572.0000      	17482.5    	7.72245
573.0000      	17452    	7.76985
574.0000      	17421.6    	7.84157
575.0000      	17391.3    	7.90194
576.0000      	17361.1    	7.99926
577.0000      	17331    	8.15957
578.0000      	17301    	8.30575
579.0000      	17271.2    	8.49712
580.0000      	17241.4    	8.72100
581.0000      	17211.7    	8.86426
582.0000      	17182.1    	9.10184
583.0000      	17152.7    	9.27694
584.0000      	17123.3    	9.50168
585.0000      	17094    	9.78699
586.0000      	17064.8    	10.09097
587.0000      	17035.8    	10.20858
588.0000      	17006.8    	10.42922
589.0000      	16977.9    	10.60742
590.0000      	16949.2    	10.84602
591.0000      	16920.5    	11.08601
592.0000      	16891.9    	11.23694
593.0000      	16863.4    	11.31646
594.0000      	16835    	11.44578
595.0000      	16806.7    	11.58207
596.0000      	16778.5    	11.70264
597.0000      	16750.4    	11.78347
598.0000      	16722.4    	11.81516
599.0000      	16694.5    	11.86086
600.0000      	16666.7    	11.91207
601.0000      	16638.9    	11.94939
602.0000      	16611.3    	11.96407
603.0000      	16583.7    	12.00512
604.0000      	16556.3    	11.99772
605.0000      	16528.9    	11.99741
606.0000      	16501.7    	11.98545
607.0000      	16474.5    	12.00765
608.0000      	16447.4    	12.05301
609.0000      	16420.4    	12.10540
610.0000      	16393.4    	12.09838
611.0000      	16366.6    	12.08545
612.0000      	16339.9    	12.08782
613.0000      	16313.2    	12.08605
614.0000      	16286.6    	12.07232
615.0000      	16260.2    	12.07792
616.0000      	16233.8    	12.07136
617.0000      	16207.5    	12.11485
618.0000      	16181.2    	12.09475
619.0000      	16155.1    	12.13568
620.0000      	16129    	12.15707
621.0000      	16103.1    	12.16627
622.0000      	16077.2    	12.13543
623.0000      	16051.4    	12.16268
624.0000      	16025.6    	12.14156
625.0000      	16000    	12.16320
626.0000      	15974.4    	12.17961
627.0000      	15949    	12.19824
628.0000      	15923.6    	12.23549
629.0000      	15898.3    	12.24982
630.0000      	15873    	12.27223
631.0000      	15847.9    	12.33245
632.0000      	15822.8    	12.33935
633.0000      	15797.8    	12.35490
634.0000      	15772.9    	12.34884
635.0000      	15748    	12.38412
636.0000      	15723.3    	12.38771
637.0000      	15698.6    	12.40975
638.0000      	15674    	12.49787
639.0000      	15649.5    	12.57076
640.0000      	15625    	12.64154
641.0000      	15600.6    	12.64614
642.0000      	15576.3    	12.67139
643.0000      	15552.1    	12.77712
644.0000      	15528    	12.87634
645.0000      	15503.9    	12.96339
646.0000      	15479.9    	13.04826
647.0000      	15456    	13.09413
648.0000      	15432.1    	13.18284
649.0000      	15408.3    	13.22579
650.0000      	15384.6    	13.33308
651.0000      	15361    	13.38471
652.0000      	15337.4    	13.44953
653.0000      	15313.9    	13.47018
654.0000      	15290.5    	13.63726
655.0000      	15267.2    	13.75455
656.0000      	15243.9    	13.91611
657.0000      	15220.7    	14.08041
658.0000      	15197.6    	14.11255
659.0000      	15174.5    	14.16646
660.0000      	15151.5    	14.21433
661.0000      	15128.6    	14.39438
662.0000      	15105.7    	14.53395
663.0000      	15083    	14.57779
664.0000      	15060.2    	14.59822
665.0000      	15037.6    	14.57211
666.0000      	15015    	14.72503
667.0000      	14992.5    	14.86139
668.0000      	14970.1    	14.94732
669.0000      	14947.7    	14.97435
670.0000      	14925.4    	14.92513
671.0000      	14903.1    	14.90453
672.0000      	14881    	14.87645
673.0000      	14858.8    	14.90437
674.0000      	14836.8    	15.00085
675.0000      	14814.8    	15.02575
676.0000      	14792.9    	14.93563
677.0000      	14771    	14.85423
678.0000      	14749.3    	14.81788
679.0000      	14727.5    	14.77560
680.0000      	14705.9    	14.71624
681.0000      	14684.3    	14.73452
682.0000      	14662.8    	14.64961
683.0000      	14641.3    	14.61530
684.0000      	14619.9    	14.52323
685.0000      	14598.5    	14.46434
686.0000      	14577.3    	14.43041
687.0000      	14556    	14.34448
688.0000      	14534.9    	14.25932
689.0000      	14513.8    	14.10947
690.0000      	14492.8    	14.16841
691.0000      	14471.8    	14.19886
692.0000      	14450.9    	14.19019
693.0000      	14430    	14.15967
694.0000      	14409.2    	14.08452
695.0000      	14388.5    	13.99228
696.0000      	14367.8    	13.97189
697.0000      	14347.2    	13.98204
698.0000      	14326.6    	13.95074
699.0000      	14306.2    	13.85707
700.0000      	14285.7    	13.68616
701.0000      	14265.3    	13.56821
702.0000      	14245    	13.49578
703.0000      	14224.8    	13.47528
704.0000      	14204.5    	13.41005
705.0000      	14184.4    	13.31237
706.0000      	14164.3    	13.18311
707.0000      	14144.3    	13.16605
708.0000      	14124.3    	13.16910
709.0000      	14104.4    	13.17183
710.0000      	14084.5    	13.08015
711.0000      	14064.7    	12.89765
712.0000      	14044.9    	12.88933
713.0000      	14025.2    	12.90683
714.0000      	14005.6    	12.91962
715.0000      	13986    	12.98982
716.0000      	13966.5    	12.98569
717.0000      	13947    	12.93677
718.0000      	13927.6    	12.97792
719.0000      	13908.2    	13.14971
720.0000      	13888.9    	13.29676
721.0000      	13869.6    	13.43038
722.0000      	13850.4    	13.51340
723.0000      	13831.3    	13.54976
724.0000      	13812.2    	13.61996
725.0000      	13793.1    	13.73270
726.0000      	13774.1    	13.83109
727.0000      	13755.2    	14.01313
728.0000      	13736.3    	14.13352
729.0000      	13717.4    	14.35381
730.0000      	13698.6    	14.54847
731.0000      	13679.9    	14.84157
732.0000      	13661.2    	15.03220
733.0000      	13642.6    	15.28200
734.0000      	13624    	15.44255
735.0000      	13605.4    	15.68196
736.0000      	13587    	15.83205
737.0000      	13568.5    	15.95942
738.0000      	13550.1    	16.39785
739.0000      	13531.8    	16.86954
740.0000      	13513.5    	17.24529
741.0000      	13495.3    	17.47276
742.0000      	13477.1    	17.64722
743.0000      	13459    	18.16693
744.0000      	13440.9    	18.81803
745.0000      	13422.8    	19.54504
746.0000      	13404.8    	20.03417
747.0000      	13386.9    	20.21259
748.0000      	13369    	20.69964
749.0000      	13351.1    	21.38003
750.0000      	13333.3    	22.28616
751.0000      	13315.6    	22.66817
752.0000      	13297.9    	23.35714
753.0000      	13280.2    	23.89703
754.0000      	13262.6    	24.54499
755.0000      	13245    	25.64830
756.0000      	13227.5    	26.11488
757.0000      	13210    	27.02786
758.0000      	13192.6    	27.67854
759.0000      	13175.2    	28.29280
760.0000      	13157.9    	29.11842
761.0000      	13140.6    	29.51325
762.0000      	13123.4    	30.54581
763.0000      	13106.2    	31.18028
764.0000      	13089    	31.52527
765.0000      	13071.9    	31.76028
766.0000      	13054.8    	32.27213
767.0000      	13037.8    	32.85406
768.0000      	13020.8    	33.47922
769.0000      	13003.9    	33.99894
770.0000      	12987    	34.15545
771.0000      	12970.2    	34.44444
772.0000      	12953.4    	34.81578
773.0000      	12936.6    	35.27243
774.0000      	12919.9    	35.33300
775.0000      	12903.2    	35.70175
776.0000      	12886.6    	35.98271
777.0000      	12870    	36.30491
778.0000      	12853.5    	36.26503
779.0000      	12837    	36.36753
780.0000      	12820.5    	36.78378
781.0000      	12804.1    	37.15274
782.0000      	12787.7    	37.36517
783.0000      	12771.4    	37.11292
784.0000      	12755.1    	37.06672
785.0000      	12738.9    	37.06371
786.0000      	12722.6    	37.44392
787.0000      	12706.5    	37.70901
788.0000      	12690.4    	37.75839
789.0000      	12674.3    	37.36546
790.0000      	12658.2    	37.12724
791.0000      	12642.2    	37.32967
792.0000      	12626.3    	37.90568
793.0000      	12610.3    	38.19439
794.0000      	12594.5    	38.35657
795.0000      	12578.6    	38.21355
796.0000      	12562.8    	38.02478
797.0000      	12547.1    	38.05294
798.0000      	12531.3    	38.02322
799.0000      	12515.6    	37.94302
800.0000      	12500    	37.84887