File: data/Reflectance_measurements/Reflectance_2019_material/75/75_2.txt
Unit Serial No : 240-IM0P2424-EU
Integration Time : 10 ms
Time Average: 10
Binning Average: 2
FFT Smoothing: 0%
Project Name : RPS900-R
Sample Name :  SM240-IMOP2424-EU
Measurement No : 1
Measurement Time : 06/03/2019   16:45:46

Wavelength(nm)	Wavenumber(1/cm)	Transmittance(%)
300.0000      	33333.3    	7.23634
301.0000      	33222.6    	7.16423
302.0000      	33112.6    	7.15516
303.0000      	33003.3    	6.55133
304.0000      	32894.7    	6.33687
305.0000      	32786.9    	6.74228
306.0000      	32679.7    	6.33575
307.0000      	32573.3    	6.79644
308.0000      	32467.5    	6.97556
309.0000      	32362.5    	6.96040
310.0000      	32258.1    	6.04027
311.0000      	32154.3    	5.69098
312.0000      	32051.3    	5.93496
313.0000      	31948.9    	5.68880
314.0000      	31847.1    	5.52334
315.0000      	31746    	6.10318
316.0000      	31645.6    	6.50459
317.0000      	31545.7    	6.57238
318.0000      	31446.5    	6.21621
319.0000      	31348    	5.39173
320.0000      	31250    	4.93268
321.0000      	31152.6    	4.76120
322.0000      	31055.9    	5.39584
323.0000      	30959.8    	5.73411
324.0000      	30864.2    	5.61042
325.0000      	30769.2    	4.69138
326.0000      	30674.8    	4.53593
327.0000      	30581    	4.77803
328.0000      	30487.8    	4.94927
329.0000      	30395.1    	4.88632
330.0000      	30303    	4.59315
331.0000      	30211.5    	4.69530
332.0000      	30120.5    	4.79223
333.0000      	30030    	4.69156
334.0000      	29940.1    	4.73883
335.0000      	29850.7    	4.79678
336.0000      	29761.9    	4.73887
337.0000      	29673.6    	4.56103
338.0000      	29585.8    	4.81315
339.0000      	29498.5    	5.01695
340.0000      	29411.8    	5.04079
341.0000      	29325.5    	4.56034
342.0000      	29239.8    	4.65105
343.0000      	29154.5    	4.65253
344.0000      	29069.8    	4.85938
345.0000      	28985.5    	4.91696
346.0000      	28901.7    	4.35242
347.0000      	28818.4    	4.35933
348.0000      	28735.6    	4.25145
349.0000      	28653.3    	4.62570
350.0000      	28571.4    	4.68574
351.0000      	28490    	4.63641
352.0000      	28409.1    	4.39290
353.0000      	28328.6    	4.41282
354.0000      	28248.6    	4.46091
355.0000      	28169    	4.52779
356.0000      	28089.9    	4.53918
357.0000      	28011.2    	4.41580
358.0000      	27933    	4.12649
359.0000      	27855.2    	4.23790
360.0000      	27777.8    	4.36091
361.0000      	27700.8    	4.68559
362.0000      	27624.3    	4.73495
363.0000      	27548.2    	4.71399
364.0000      	27472.5    	4.48313
365.0000      	27397.3    	4.50137
366.0000      	27322.4    	4.80109
367.0000      	27248    	4.69252
368.0000      	27173.9    	4.66374
369.0000      	27100.3    	4.48110
370.0000      	27027    	4.46277
371.0000      	26954.2    	4.53749
372.0000      	26881.7    	4.67731
373.0000      	26809.7    	4.69153
374.0000      	26738    	4.63238
375.0000      	26666.7    	4.70820
376.0000      	26595.7    	4.75228
377.0000      	26525.2    	4.82212
378.0000      	26455    	4.76819
379.0000      	26385.2    	4.83713
380.0000      	26315.8    	4.82168
381.0000      	26246.7    	4.77516
382.0000      	26178    	4.86368
383.0000      	26109.7    	5.11155
384.0000      	26041.7    	5.11224
385.0000      	25974    	4.99590
386.0000      	25906.7    	4.98967
387.0000      	25839.8    	5.14188
388.0000      	25773.2    	5.40769
389.0000      	25706.9    	5.40316
390.0000      	25641    	5.37607
391.0000      	25575.4    	5.48237
392.0000      	25510.2    	5.51922
393.0000      	25445.3    	5.48213
394.0000      	25380.7    	5.52604
395.0000      	25316.5    	5.59167
396.0000      	25252.5    	5.60256
397.0000      	25188.9    	5.65320
398.0000      	25125.6    	5.66867
399.0000      	25062.7    	5.85032
400.0000      	25000    	5.97503
401.0000      	24937.7    	6.09049
402.0000      	24875.6    	6.08146
403.0000      	24813.9    	6.01247
404.0000      	24752.5    	6.07650
405.0000      	24691.4    	6.29710
406.0000      	24630.5    	6.34670
407.0000      	24570    	6.22759
408.0000      	24509.8    	6.20017
409.0000      	24449.9    	6.30291
410.0000      	24390.2    	6.42578
411.0000      	24330.9    	6.54137
412.0000      	24271.8    	6.59933
413.0000      	24213.1    	6.65895
414.0000      	24154.6    	6.67206
415.0000      	24096.4    	6.68552
416.0000      	24038.5    	6.77004
417.0000      	23980.8    	6.85122
418.0000      	23923.4    	6.89448
419.0000      	23866.3    	6.89351
420.0000      	23809.5    	6.87662
421.0000      	23753    	6.89083
422.0000      	23696.7    	7.00736
423.0000      	23640.7    	7.10455
424.0000      	23584.9    	7.10787
425.0000      	23529.4    	7.10739
426.0000      	23474.2    	7.06985
427.0000      	23419.2    	7.15241
428.0000      	23364.5    	7.11677
429.0000      	23310    	7.12716
430.0000      	23255.8    	7.14301
431.0000      	23201.9    	7.30254
432.0000      	23148.1    	7.34478
433.0000      	23094.7    	7.34224
434.0000      	23041.5    	7.34312
435.0000      	22988.5    	7.34750
436.0000      	22935.8    	7.31378
437.0000      	22883.3    	7.37983
438.0000      	22831.1    	7.40557
439.0000      	22779    	7.54763
440.0000      	22727.3    	7.57521
441.0000      	22675.7    	7.53975
442.0000      	22624.4    	7.51511
443.0000      	22573.4    	7.66660
444.0000      	22522.5    	7.81538
445.0000      	22471.9    	7.82742
446.0000      	22421.5    	7.81751
447.0000      	22371.4    	7.79078
448.0000      	22321.4    	7.81289
449.0000      	22271.7    	7.81427
450.0000      	22222.2    	7.89660
451.0000      	22172.9    	7.93750
452.0000      	22123.9    	7.97449
453.0000      	22075.1    	7.98855
454.0000      	22026.4    	8.06653
455.0000      	21978    	8.09189
456.0000      	21929.8    	8.17798
457.0000      	21881.8    	8.18991
458.0000      	21834.1    	8.12124
459.0000      	21786.5    	8.15036
460.0000      	21739.1    	8.22787
461.0000      	21692    	8.34524
462.0000      	21645    	8.37893
463.0000      	21598.3    	8.41908
464.0000      	21551.7    	8.43274
465.0000      	21505.4    	8.47222
466.0000      	21459.2    	8.52373
467.0000      	21413.3    	8.59619
468.0000      	21367.5    	8.66555
469.0000      	21322    	8.74278
470.0000      	21276.6    	8.81766
471.0000      	21231.4    	8.91100
472.0000      	21186.4    	9.02089
473.0000      	21141.6    	9.09025
474.0000      	21097    	9.14822
475.0000      	21052.6    	9.17139
476.0000      	21008.4    	9.28097
477.0000      	20964.4    	9.37112
478.0000      	20920.5    	9.41658
479.0000      	20876.8    	9.51575
480.0000      	20833.3    	9.62944
481.0000      	20790    	9.72749
482.0000      	20746.9    	9.81280
483.0000      	20703.9    	9.95556
484.0000      	20661.2    	10.02825
485.0000      	20618.6    	10.06869
486.0000      	20576.1    	10.07520
487.0000      	20533.9    	10.13299
488.0000      	20491.8    	10.24171
489.0000      	20449.9    	10.37507
490.0000      	20408.2    	10.48508
491.0000      	20366.6    	10.58666
492.0000      	20325.2    	10.62469
493.0000      	20284    	10.69219
494.0000      	20242.9    	10.77916
495.0000      	20202    	10.81865
496.0000      	20161.3    	10.85350
497.0000      	20120.7    	10.88182
498.0000      	20080.3    	10.95880
499.0000      	20040.1    	11.01086
500.0000      	20000    	11.10013
501.0000      	19960.1    	11.15038
502.0000      	19920.3    	11.11954
503.0000      	19880.7    	11.11048
504.0000      	19841.3    	11.12249
505.0000      	19802    	11.12267
506.0000      	19762.8    	11.11923
507.0000      	19723.9    	11.03611
508.0000      	19685    	10.97984
509.0000      	19646.4    	10.87719
510.0000      	19607.8    	10.79487
511.0000      	19569.5    	10.73798
512.0000      	19531.2    	10.59926
513.0000      	19493.2    	10.54355
514.0000      	19455.3    	10.37766
515.0000      	19417.5    	10.21444
516.0000      	19379.8    	10.06123
517.0000      	19342.4    	9.87869
518.0000      	19305    	9.68804
519.0000      	19267.8    	9.61131
520.0000      	19230.8    	9.43499
521.0000      	19193.9    	9.23996
522.0000      	19157.1    	9.06983
523.0000      	19120.5    	8.91950
524.0000      	19084    	8.74799
525.0000      	19047.6    	8.52812
526.0000      	19011.4    	8.44796
527.0000      	18975.3    	8.30920
528.0000      	18939.4    	8.22260
529.0000      	18903.6    	8.10027
530.0000      	18867.9    	7.97426
531.0000      	18832.4    	7.86973
532.0000      	18797    	7.78217
533.0000      	18761.7    	7.73091
534.0000      	18726.6    	7.64015
535.0000      	18691.6    	7.56658
536.0000      	18656.7    	7.48777
537.0000      	18622    	7.40552
538.0000      	18587.4    	7.38899
539.0000      	18552.9    	7.38621
540.0000      	18518.5    	7.38240
541.0000      	18484.3    	7.40312
542.0000      	18450.2    	7.38857
543.0000      	18416.2    	7.38784
544.0000      	18382.4    	7.36866
545.0000      	18348.6    	7.37365
546.0000      	18315    	7.34128
547.0000      	18281.5    	7.32009
548.0000      	18248.2    	7.25802
549.0000      	18214.9    	7.20182
550.0000      	18181.8    	7.15946
551.0000      	18148.8    	7.12215
552.0000      	18115.9    	7.05154
553.0000      	18083.2    	6.97894
554.0000      	18050.5    	6.90287
555.0000      	18018    	6.83791
556.0000      	17985.6    	6.77022
557.0000      	17953.3    	6.66720
558.0000      	17921.1    	6.60773
559.0000      	17889.1    	6.53884
560.0000      	17857.1    	6.42244
561.0000      	17825.3    	6.33948
562.0000      	17793.6    	6.27040
563.0000      	17762    	6.19164
564.0000      	17730.5    	6.13580
565.0000      	17699.1    	6.07577
566.0000      	17667.8    	6.00195
567.0000      	17636.7    	5.93669
568.0000      	17605.6    	5.89541
569.0000      	17574.7    	5.94110
570.0000      	17543.9    	5.94641
571.0000      	17513.1    	5.94601
572.0000      	17482.5    	5.92483
573.0000      	17452    	5.97403
574.0000      	17421.6    	6.06922
575.0000      	17391.3    	6.11540
576.0000      	17361.1    	6.18719
577.0000      	17331    	6.26291
578.0000      	17301    	6.32974
579.0000      	17271.2    	6.44943
580.0000      	17241.4    	6.56917
581.0000      	17211.7    	6.65728
582.0000      	17182.1    	6.81481
583.0000      	17152.7    	6.94272
584.0000      	17123.3    	7.07490
585.0000      	17094    	7.22168
586.0000      	17064.8    	7.41511
587.0000      	17035.8    	7.52228
588.0000      	17006.8    	7.69075
589.0000      	16977.9    	7.81061
590.0000      	16949.2    	7.94477
591.0000      	16920.5    	8.13282
592.0000      	16891.9    	8.24363
593.0000      	16863.4    	8.29034
594.0000      	16835    	8.35658
595.0000      	16806.7    	8.40585
596.0000      	16778.5    	8.47072
597.0000      	16750.4    	8.52842
598.0000      	16722.4    	8.57736
599.0000      	16694.5    	8.60281
600.0000      	16666.7    	8.61619
601.0000      	16638.9    	8.61741
602.0000      	16611.3    	8.62631
603.0000      	16583.7    	8.67035
604.0000      	16556.3    	8.67858
605.0000      	16528.9    	8.73599
606.0000      	16501.7    	8.75391
607.0000      	16474.5    	8.69699
608.0000      	16447.4    	8.67539
609.0000      	16420.4    	8.70089
610.0000      	16393.4    	8.72436
611.0000      	16366.6    	8.68715
612.0000      	16339.9    	8.65440
613.0000      	16313.2    	8.64479
614.0000      	16286.6    	8.68931
615.0000      	16260.2    	8.71810
616.0000      	16233.8    	8.72096
617.0000      	16207.5    	8.73269
618.0000      	16181.2    	8.71666
619.0000      	16155.1    	8.67377
620.0000      	16129    	8.70623
621.0000      	16103.1    	8.69961
622.0000      	16077.2    	8.76091
623.0000      	16051.4    	8.79880
624.0000      	16025.6    	8.76836
625.0000      	16000    	8.75602
626.0000      	15974.4    	8.77123
627.0000      	15949    	8.79669
628.0000      	15923.6    	8.82608
629.0000      	15898.3    	8.82101
630.0000      	15873    	8.82483
631.0000      	15847.9    	8.82866
632.0000      	15822.8    	8.82322
633.0000      	15797.8    	8.85582
634.0000      	15772.9    	8.90496
635.0000      	15748    	8.94040
636.0000      	15723.3    	8.91707
637.0000      	15698.6    	8.93590
638.0000      	15674    	8.98846
639.0000      	15649.5    	9.04553
640.0000      	15625    	9.09814
641.0000      	15600.6    	9.08381
642.0000      	15576.3    	9.08755
643.0000      	15552.1    	9.10950
644.0000      	15528    	9.16577
645.0000      	15503.9    	9.25572
646.0000      	15479.9    	9.34693
647.0000      	15456    	9.34577
648.0000      	15432.1    	9.36397
649.0000      	15408.3    	9.37299
650.0000      	15384.6    	9.46829
651.0000      	15361    	9.58883
652.0000      	15337.4    	9.64697
653.0000      	15313.9    	9.67522
654.0000      	15290.5    	9.70888
655.0000      	15267.2    	9.75634
656.0000      	15243.9    	9.78061
657.0000      	15220.7    	9.88644
658.0000      	15197.6    	9.89718
659.0000      	15174.5    	9.99345
660.0000      	15151.5    	10.06053
661.0000      	15128.6    	10.17928
662.0000      	15105.7    	10.29125
663.0000      	15083    	10.31569
664.0000      	15060.2    	10.32854
665.0000      	15037.6    	10.28228
666.0000      	15015    	10.37126
667.0000      	14992.5    	10.44069
668.0000      	14970.1    	10.47625
669.0000      	14947.7    	10.47051
670.0000      	14925.4    	10.45820
671.0000      	14903.1    	10.48984
672.0000      	14881    	10.50495
673.0000      	14858.8    	10.49765
674.0000      	14836.8    	10.57039
675.0000      	14814.8    	10.58799
676.0000      	14792.9    	10.51087
677.0000      	14771    	10.42973
678.0000      	14749.3    	10.39546
679.0000      	14727.5    	10.40761
680.0000      	14705.9    	10.38659
681.0000      	14684.3    	10.43775
682.0000      	14662.8    	10.36142
683.0000      	14641.3    	10.32413
684.0000      	14619.9    	10.22951
685.0000      	14598.5    	10.23809
686.0000      	14577.3    	10.29652
687.0000      	14556    	10.24178
688.0000      	14534.9    	10.16966
689.0000      	14513.8    	10.04949
690.0000      	14492.8    	10.08974
691.0000      	14471.8    	10.07329
692.0000      	14450.9    	10.11278
693.0000      	14430    	10.10101
694.0000      	14409.2    	10.01551
695.0000      	14388.5    	9.85789
696.0000      	14367.8    	9.78979
697.0000      	14347.2    	9.75905
698.0000      	14326.6    	9.75641
699.0000      	14306.2    	9.76386
700.0000      	14285.7    	9.72778
701.0000      	14265.3    	9.67570
702.0000      	14245    	9.66488
703.0000      	14224.8    	9.68156
704.0000      	14204.5    	9.67626
705.0000      	14184.4    	9.62958
706.0000      	14164.3    	9.54194
707.0000      	14144.3    	9.40932
708.0000      	14124.3    	9.38828
709.0000      	14104.4    	9.37597
710.0000      	14084.5    	9.47223
711.0000      	14064.7    	9.40596
712.0000      	14044.9    	9.28499
713.0000      	14025.2    	9.25001
714.0000      	14005.6    	9.20301
715.0000      	13986    	9.31412
716.0000      	13966.5    	9.42996
717.0000      	13947    	9.44578
718.0000      	13927.6    	9.48545
719.0000      	13908.2    	9.49893
720.0000      	13888.9    	9.51846
721.0000      	13869.6    	9.67387
722.0000      	13850.4    	9.76886
723.0000      	13831.3    	9.78722
724.0000      	13812.2    	9.83836
725.0000      	13793.1    	9.93156
726.0000      	13774.1    	10.00754
727.0000      	13755.2    	10.12466
728.0000      	13736.3    	10.25195
729.0000      	13717.4    	10.41576
730.0000      	13698.6    	10.35965
731.0000      	13679.9    	10.40668
732.0000      	13661.2    	10.52583
733.0000      	13642.6    	10.82806
734.0000      	13624    	10.98437
735.0000      	13605.4    	11.07927
736.0000      	13587    	11.19300
737.0000      	13568.5    	11.23797
738.0000      	13550.1    	11.47373
739.0000      	13531.8    	11.71753
740.0000      	13513.5    	12.16382
741.0000      	13495.3    	12.28359
742.0000      	13477.1    	12.34015
743.0000      	13459    	12.50147
744.0000      	13440.9    	12.89150
745.0000      	13422.8    	13.40197
746.0000      	13404.8    	13.62443
747.0000      	13386.9    	13.75231
748.0000      	13369    	13.98185
749.0000      	13351.1    	14.47404
750.0000      	13333.3    	14.94686
751.0000      	13315.6    	15.21448
752.0000      	13297.9    	15.59896
753.0000      	13280.2    	16.03801
754.0000      	13262.6    	16.32346
755.0000      	13245    	16.88557
756.0000      	13227.5    	17.09420
757.0000      	13210    	17.61687
758.0000      	13192.6    	18.08563
759.0000      	13175.2    	18.59491
760.0000      	13157.9    	19.19542
761.0000      	13140.6    	19.39648
762.0000      	13123.4    	20.00017
763.0000      	13106.2    	20.45928
764.0000      	13089    	20.68564
765.0000      	13071.9    	20.77741
766.0000      	13054.8    	21.02488
767.0000      	13037.8    	21.26537
768.0000      	13020.8    	21.50357
769.0000      	13003.9    	21.80416
770.0000      	12987    	21.95940
771.0000      	12970.2    	22.35892
772.0000      	12953.4    	22.43998
773.0000      	12936.6    	22.68913
774.0000      	12919.9    	22.78401
775.0000      	12903.2    	23.26709
776.0000      	12886.6    	23.47142
777.0000      	12870    	23.62374
778.0000      	12853.5    	23.61362
779.0000      	12837    	23.78129
780.0000      	12820.5    	23.83491
781.0000      	12804.1    	24.06121
782.0000      	12787.7    	24.15766
783.0000      	12771.4    	24.01764
784.0000      	12755.1    	23.85479
785.0000      	12738.9    	23.94865
786.0000      	12722.6    	24.19761
787.0000      	12706.5    	24.53865
788.0000      	12690.4    	24.60386
789.0000      	12674.3    	24.58502
790.0000      	12658.2    	24.32125
791.0000      	12642.2    	24.09744
792.0000      	12626.3    	24.23454
793.0000      	12610.3    	24.40203
794.0000      	12594.5    	24.52765
795.0000      	12578.6    	24.36538
796.0000      	12562.8    	24.31476
797.0000      	12547.1    	24.43260
798.0000      	12531.3    	24.66031
799.0000      	12515.6    	24.65866
800.0000      	12500    	24.83064