File: data/Reflectance_measurements/Reflectance_2019_material/75/75_3.txt
Unit Serial No : 240-IM0P2424-EU
Integration Time : 10 ms
Time Average: 10
Binning Average: 2
FFT Smoothing: 0%
Project Name : RPS900-R
Sample Name :  SM240-IMOP2424-EU
Measurement No : 1
Measurement Time : 06/03/2019   16:46:04

Wavelength(nm)	Wavenumber(1/cm)	Transmittance(%)
300.0000      	33333.3    	8.79819
301.0000      	33222.6    	8.59093
302.0000      	33112.6    	9.17567
303.0000      	33003.3    	8.41646
304.0000      	32894.7    	7.69383
305.0000      	32786.9    	7.96815
306.0000      	32679.7    	7.71237
307.0000      	32573.3    	7.33775
308.0000      	32467.5    	7.12644
309.0000      	32362.5    	7.30982
310.0000      	32258.1    	7.05657
311.0000      	32154.3    	7.48949
312.0000      	32051.3    	7.61317
313.0000      	31948.9    	6.89200
314.0000      	31847.1    	6.70730
315.0000      	31746    	6.96876
316.0000      	31645.6    	7.13048
317.0000      	31545.7    	6.62765
318.0000      	31446.5    	6.49236
319.0000      	31348    	6.37812
320.0000      	31250    	6.54108
321.0000      	31152.6    	6.49342
322.0000      	31055.9    	6.49187
323.0000      	30959.8    	6.44428
324.0000      	30864.2    	6.32572
325.0000      	30769.2    	5.85439
326.0000      	30674.8    	5.79761
327.0000      	30581    	5.51962
328.0000      	30487.8    	5.65140
329.0000      	30395.1    	5.76451
330.0000      	30303    	5.46747
331.0000      	30211.5    	5.47342
332.0000      	30120.5    	5.50188
333.0000      	30030    	5.32429
334.0000      	29940.1    	5.27962
335.0000      	29850.7    	5.37410
336.0000      	29761.9    	5.53694
337.0000      	29673.6    	5.44412
338.0000      	29585.8    	5.35592
339.0000      	29498.5    	5.14077
340.0000      	29411.8    	5.10341
341.0000      	29325.5    	4.99095
342.0000      	29239.8    	5.25698
343.0000      	29154.5    	5.22239
344.0000      	29069.8    	5.30563
345.0000      	28985.5    	5.41856
346.0000      	28901.7    	5.43704
347.0000      	28818.4    	5.50034
348.0000      	28735.6    	5.21872
349.0000      	28653.3    	5.15407
350.0000      	28571.4    	4.99265
351.0000      	28490    	5.11424
352.0000      	28409.1    	5.08651
353.0000      	28328.6    	5.13077
354.0000      	28248.6    	5.00190
355.0000      	28169    	4.88028
356.0000      	28089.9    	4.99929
357.0000      	28011.2    	4.96587
358.0000      	27933    	4.90145
359.0000      	27855.2    	4.98613
360.0000      	27777.8    	5.04224
361.0000      	27700.8    	5.22023
362.0000      	27624.3    	5.29418
363.0000      	27548.2    	5.47034
364.0000      	27472.5    	5.20857
365.0000      	27397.3    	5.20827
366.0000      	27322.4    	5.42714
367.0000      	27248    	5.38351
368.0000      	27173.9    	5.43927
369.0000      	27100.3    	5.30246
370.0000      	27027    	5.20368
371.0000      	26954.2    	5.18095
372.0000      	26881.7    	5.31186
373.0000      	26809.7    	5.28842
374.0000      	26738    	5.33353
375.0000      	26666.7    	5.25687
376.0000      	26595.7    	5.30283
377.0000      	26525.2    	5.50045
378.0000      	26455    	5.62066
379.0000      	26385.2    	5.70887
380.0000      	26315.8    	5.84589
381.0000      	26246.7    	5.70910
382.0000      	26178    	5.70182
383.0000      	26109.7    	5.75804
384.0000      	26041.7    	5.97528
385.0000      	25974    	6.07967
386.0000      	25906.7    	6.02249
387.0000      	25839.8    	5.96208
388.0000      	25773.2    	6.11338
389.0000      	25706.9    	6.20285
390.0000      	25641    	6.41491
391.0000      	25575.4    	6.69664
392.0000      	25510.2    	6.74523
393.0000      	25445.3    	6.68916
394.0000      	25380.7    	6.79630
395.0000      	25316.5    	6.90389
396.0000      	25252.5    	6.98224
397.0000      	25188.9    	7.02530
398.0000      	25125.6    	7.01757
399.0000      	25062.7    	7.23943
400.0000      	25000    	7.30460
401.0000      	24937.7    	7.42368
402.0000      	24875.6    	7.47913
403.0000      	24813.9    	7.58748
404.0000      	24752.5    	7.67789
405.0000      	24691.4    	7.75009
406.0000      	24630.5    	7.89179
407.0000      	24570    	7.94974
408.0000      	24509.8    	8.12136
409.0000      	24449.9    	8.23385
410.0000      	24390.2    	8.28663
411.0000      	24330.9    	8.36356
412.0000      	24271.8    	8.43839
413.0000      	24213.1    	8.53296
414.0000      	24154.6    	8.58729
415.0000      	24096.4    	8.62903
416.0000      	24038.5    	8.68327
417.0000      	23980.8    	8.68682
418.0000      	23923.4    	8.74975
419.0000      	23866.3    	8.73477
420.0000      	23809.5    	8.72167
421.0000      	23753    	8.73267
422.0000      	23696.7    	8.89351
423.0000      	23640.7    	9.01142
424.0000      	23584.9    	9.07790
425.0000      	23529.4    	9.09740
426.0000      	23474.2    	9.08279
427.0000      	23419.2    	9.20586
428.0000      	23364.5    	9.23579
429.0000      	23310    	9.38707
430.0000      	23255.8    	9.39866
431.0000      	23201.9    	9.47567
432.0000      	23148.1    	9.58290
433.0000      	23094.7    	9.56756
434.0000      	23041.5    	9.47437
435.0000      	22988.5    	9.51661
436.0000      	22935.8    	9.57352
437.0000      	22883.3    	9.61059
438.0000      	22831.1    	9.62272
439.0000      	22779    	9.74907
440.0000      	22727.3    	9.80378
441.0000      	22675.7    	9.90961
442.0000      	22624.4    	10.02529
443.0000      	22573.4    	10.06798
444.0000      	22522.5    	10.08711
445.0000      	22471.9    	10.12196
446.0000      	22421.5    	10.18822
447.0000      	22371.4    	10.24435
448.0000      	22321.4    	10.30428
449.0000      	22271.7    	10.31144
450.0000      	22222.2    	10.33305
451.0000      	22172.9    	10.41250
452.0000      	22123.9    	10.44258
453.0000      	22075.1    	10.53211
454.0000      	22026.4    	10.60460
455.0000      	21978    	10.60399
456.0000      	21929.8    	10.68910
457.0000      	21881.8    	10.73780
458.0000      	21834.1    	10.88085
459.0000      	21786.5    	10.90649
460.0000      	21739.1    	10.90634
461.0000      	21692    	10.97877
462.0000      	21645    	11.03433
463.0000      	21598.3    	11.19651
464.0000      	21551.7    	11.18966
465.0000      	21505.4    	11.20521
466.0000      	21459.2    	11.24896
467.0000      	21413.3    	11.39964
468.0000      	21367.5    	11.48557
469.0000      	21322    	11.59869
470.0000      	21276.6    	11.65624
471.0000      	21231.4    	11.79849
472.0000      	21186.4    	11.93839
473.0000      	21141.6    	12.08641
474.0000      	21097    	12.19034
475.0000      	21052.6    	12.30810
476.0000      	21008.4    	12.45849
477.0000      	20964.4    	12.58196
478.0000      	20920.5    	12.64040
479.0000      	20876.8    	12.82139
480.0000      	20833.3    	12.97979
481.0000      	20790    	13.12953
482.0000      	20746.9    	13.26377
483.0000      	20703.9    	13.43246
484.0000      	20661.2    	13.52288
485.0000      	20618.6    	13.59558
486.0000      	20576.1    	13.70350
487.0000      	20533.9    	13.84965
488.0000      	20491.8    	14.01033
489.0000      	20449.9    	14.16423
490.0000      	20408.2    	14.28082
491.0000      	20366.6    	14.40576
492.0000      	20325.2    	14.46830
493.0000      	20284    	14.55598
494.0000      	20242.9    	14.67751
495.0000      	20202    	14.78698
496.0000      	20161.3    	14.92047
497.0000      	20120.7    	15.01922
498.0000      	20080.3    	15.07870
499.0000      	20040.1    	15.12363
500.0000      	20000    	15.16442
501.0000      	19960.1    	15.19493
502.0000      	19920.3    	15.20183
503.0000      	19880.7    	15.26699
504.0000      	19841.3    	15.33378
505.0000      	19802    	15.32612
506.0000      	19762.8    	15.30261
507.0000      	19723.9    	15.20395
508.0000      	19685    	15.08797
509.0000      	19646.4    	14.92367
510.0000      	19607.8    	14.82773
511.0000      	19569.5    	14.75352
512.0000      	19531.2    	14.55278
513.0000      	19493.2    	14.45272
514.0000      	19455.3    	14.20437
515.0000      	19417.5    	13.96775
516.0000      	19379.8    	13.66588
517.0000      	19342.4    	13.39884
518.0000      	19305    	13.10361
519.0000      	19267.8    	12.97658
520.0000      	19230.8    	12.70038
521.0000      	19193.9    	12.44706
522.0000      	19157.1    	12.20045
523.0000      	19120.5    	11.95422
524.0000      	19084    	11.66670
525.0000      	19047.6    	11.35883
526.0000      	19011.4    	11.25377
527.0000      	18975.3    	11.04681
528.0000      	18939.4    	10.84439
529.0000      	18903.6    	10.61465
530.0000      	18867.9    	10.45320
531.0000      	18832.4    	10.32059
532.0000      	18797    	10.19648
533.0000      	18761.7    	10.11612
534.0000      	18726.6    	9.98954
535.0000      	18691.6    	9.88935
536.0000      	18656.7    	9.80803
537.0000      	18622    	9.72508
538.0000      	18587.4    	9.69449
539.0000      	18552.9    	9.69596
540.0000      	18518.5    	9.64019
541.0000      	18484.3    	9.59063
542.0000      	18450.2    	9.57858
543.0000      	18416.2    	9.61254
544.0000      	18382.4    	9.60019
545.0000      	18348.6    	9.60096
546.0000      	18315    	9.55524
547.0000      	18281.5    	9.53411
548.0000      	18248.2    	9.43157
549.0000      	18214.9    	9.35880
550.0000      	18181.8    	9.29163
551.0000      	18148.8    	9.27590
552.0000      	18115.9    	9.18671
553.0000      	18083.2    	9.11759
554.0000      	18050.5    	8.99928
555.0000      	18018    	8.84281
556.0000      	17985.6    	8.68865
557.0000      	17953.3    	8.54269
558.0000      	17921.1    	8.47921
559.0000      	17889.1    	8.35515
560.0000      	17857.1    	8.17550
561.0000      	17825.3    	8.00489
562.0000      	17793.6    	7.87222
563.0000      	17762    	7.77196
564.0000      	17730.5    	7.70698
565.0000      	17699.1    	7.61584
566.0000      	17667.8    	7.53939
567.0000      	17636.7    	7.46018
568.0000      	17605.6    	7.35104
569.0000      	17574.7    	7.31990
570.0000      	17543.9    	7.34282
571.0000      	17513.1    	7.42823
572.0000      	17482.5    	7.47365
573.0000      	17452    	7.51140
574.0000      	17421.6    	7.57805
575.0000      	17391.3    	7.63166
576.0000      	17361.1    	7.73890
577.0000      	17331    	7.87257
578.0000      	17301    	8.03243
579.0000      	17271.2    	8.21320
580.0000      	17241.4    	8.40350
581.0000      	17211.7    	8.49897
582.0000      	17182.1    	8.71032
583.0000      	17152.7    	8.93158
584.0000      	17123.3    	9.22618
585.0000      	17094    	9.47116
586.0000      	17064.8    	9.69956
587.0000      	17035.8    	9.79553
588.0000      	17006.8    	10.02034
589.0000      	16977.9    	10.23330
590.0000      	16949.2    	10.48726
591.0000      	16920.5    	10.72561
592.0000      	16891.9    	10.87395
593.0000      	16863.4    	10.91769
594.0000      	16835    	11.04735
595.0000      	16806.7    	11.16892
596.0000      	16778.5    	11.27569
597.0000      	16750.4    	11.33281
598.0000      	16722.4    	11.40926
599.0000      	16694.5    	11.44207
600.0000      	16666.7    	11.53877
601.0000      	16638.9    	11.57292
602.0000      	16611.3    	11.60053
603.0000      	16583.7    	11.58279
604.0000      	16556.3    	11.56534
605.0000      	16528.9    	11.60234
606.0000      	16501.7    	11.64291
607.0000      	16474.5    	11.63824
608.0000      	16447.4    	11.61448
609.0000      	16420.4    	11.57223
610.0000      	16393.4    	11.56484
611.0000      	16366.6    	11.54839
612.0000      	16339.9    	11.55400
613.0000      	16313.2    	11.52691
614.0000      	16286.6    	11.57964
615.0000      	16260.2    	11.60396
616.0000      	16233.8    	11.63371
617.0000      	16207.5    	11.65035
618.0000      	16181.2    	11.63682
619.0000      	16155.1    	11.60054
620.0000      	16129    	11.62034
621.0000      	16103.1    	11.61933
622.0000      	16077.2    	11.62511
623.0000      	16051.4    	11.68253
624.0000      	16025.6    	11.72264
625.0000      	16000    	11.74532
626.0000      	15974.4    	11.75285
627.0000      	15949    	11.74479
628.0000      	15923.6    	11.81705
629.0000      	15898.3    	11.81967
630.0000      	15873    	11.83200
631.0000      	15847.9    	11.85750
632.0000      	15822.8    	11.85896
633.0000      	15797.8    	11.88810
634.0000      	15772.9    	11.90951
635.0000      	15748    	11.94881
636.0000      	15723.3    	11.91656
637.0000      	15698.6    	11.90088
638.0000      	15674    	11.92599
639.0000      	15649.5    	11.96752
640.0000      	15625    	12.11564
641.0000      	15600.6    	12.17530
642.0000      	15576.3    	12.20484
643.0000      	15552.1    	12.23139
644.0000      	15528    	12.30294
645.0000      	15503.9    	12.36033
646.0000      	15479.9    	12.47973
647.0000      	15456    	12.51719
648.0000      	15432.1    	12.65142
649.0000      	15408.3    	12.68835
650.0000      	15384.6    	12.76918
651.0000      	15361    	12.86834
652.0000      	15337.4    	12.96428
653.0000      	15313.9    	13.00280
654.0000      	15290.5    	13.12574
655.0000      	15267.2    	13.22937
656.0000      	15243.9    	13.30113
657.0000      	15220.7    	13.41680
658.0000      	15197.6    	13.46868
659.0000      	15174.5    	13.57488
660.0000      	15151.5    	13.66144
661.0000      	15128.6    	13.70067
662.0000      	15105.7    	13.81555
663.0000      	15083    	13.85802
664.0000      	15060.2    	14.00389
665.0000      	15037.6    	14.00578
666.0000      	15015    	14.05667
667.0000      	14992.5    	14.15164
668.0000      	14970.1    	14.21062
669.0000      	14947.7    	14.29740
670.0000      	14925.4    	14.33442
671.0000      	14903.1    	14.34392
672.0000      	14881    	14.26077
673.0000      	14858.8    	14.25285
674.0000      	14836.8    	14.29691
675.0000      	14814.8    	14.31755
676.0000      	14792.9    	14.24826
677.0000      	14771    	14.21934
678.0000      	14749.3    	14.21165
679.0000      	14727.5    	14.16809
680.0000      	14705.9    	14.10330
681.0000      	14684.3    	14.03465
682.0000      	14662.8    	13.96664
683.0000      	14641.3    	13.97287
684.0000      	14619.9    	13.96934
685.0000      	14598.5    	13.92016
686.0000      	14577.3    	13.92155
687.0000      	14556    	13.94879
688.0000      	14534.9    	13.89195
689.0000      	14513.8    	13.71017
690.0000      	14492.8    	13.65227
691.0000      	14471.8    	13.57425
692.0000      	14450.9    	13.58282
693.0000      	14430    	13.56152
694.0000      	14409.2    	13.58277
695.0000      	14388.5    	13.48018
696.0000      	14367.8    	13.33214
697.0000      	14347.2    	13.18357
698.0000      	14326.6    	13.16990
699.0000      	14306.2    	13.21038
700.0000      	14285.7    	13.12262
701.0000      	14265.3    	13.03141
702.0000      	14245    	12.93950
703.0000      	14224.8    	12.93328
704.0000      	14204.5    	12.82991
705.0000      	14184.4    	12.83509
706.0000      	14164.3    	12.79792
707.0000      	14144.3    	12.70666
708.0000      	14124.3    	12.64705
709.0000      	14104.4    	12.54795
710.0000      	14084.5    	12.46090
711.0000      	14064.7    	12.38025
712.0000      	14044.9    	12.45960
713.0000      	14025.2    	12.49044
714.0000      	14005.6    	12.39261
715.0000      	13986    	12.28661
716.0000      	13966.5    	12.31464
717.0000      	13947    	12.38649
718.0000      	13927.6    	12.47808
719.0000      	13908.2    	12.64230
720.0000      	13888.9    	12.78656
721.0000      	13869.6    	13.02896
722.0000      	13850.4    	13.11280
723.0000      	13831.3    	13.19529
724.0000      	13812.2    	13.31296
725.0000      	13793.1    	13.30089
726.0000      	13774.1    	13.39123
727.0000      	13755.2    	13.64345
728.0000      	13736.3    	13.79226
729.0000      	13717.4    	13.90512
730.0000      	13698.6    	13.98819
731.0000      	13679.9    	14.26705
732.0000      	13661.2    	14.35752
733.0000      	13642.6    	14.58203
734.0000      	13624    	14.74724
735.0000      	13605.4    	15.02171
736.0000      	13587    	15.15759
737.0000      	13568.5    	15.30715
738.0000      	13550.1    	15.66302
739.0000      	13531.8    	16.09482
740.0000      	13513.5    	16.48817
741.0000      	13495.3    	16.94331
742.0000      	13477.1    	17.09887
743.0000      	13459    	17.41871
744.0000      	13440.9    	17.70786
745.0000      	13422.8    	18.27400
746.0000      	13404.8    	18.99626
747.0000      	13386.9    	19.29338
748.0000      	13369    	19.88642
749.0000      	13351.1    	20.51282
750.0000      	13333.3    	21.21717
751.0000      	13315.6    	21.60439
752.0000      	13297.9    	22.37735
753.0000      	13280.2    	23.14279
754.0000      	13262.6    	23.72184
755.0000      	13245    	24.49265
756.0000      	13227.5    	24.81476
757.0000      	13210    	25.72253
758.0000      	13192.6    	26.49538
759.0000      	13175.2    	27.26602
760.0000      	13157.9    	28.01890
761.0000      	13140.6    	28.38846
762.0000      	13123.4    	29.20555
763.0000      	13106.2    	29.76628
764.0000      	13089    	30.10650
765.0000      	13071.9    	30.34581
766.0000      	13054.8    	30.82393
767.0000      	13037.8    	31.14203
768.0000      	13020.8    	31.48198
769.0000      	13003.9    	31.94940
770.0000      	12987    	32.25746
771.0000      	12970.2    	32.81798
772.0000      	12953.4    	33.33416
773.0000      	12936.6    	33.67217
774.0000      	12919.9    	33.85594
775.0000      	12903.2    	34.17219
776.0000      	12886.6    	34.56308
777.0000      	12870    	34.74833
778.0000      	12853.5    	34.51889
779.0000      	12837    	34.49381
780.0000      	12820.5    	34.68284
781.0000      	12804.1    	34.84652
782.0000      	12787.7    	35.07479
783.0000      	12771.4    	35.24183
784.0000      	12755.1    	35.33054
785.0000      	12738.9    	35.26247
786.0000      	12722.6    	35.19431
787.0000      	12706.5    	35.60303
788.0000      	12690.4    	35.76652
789.0000      	12674.3    	35.77771
790.0000      	12658.2    	35.57981
791.0000      	12642.2    	35.33476
792.0000      	12626.3    	35.48136
793.0000      	12610.3    	35.66771
794.0000      	12594.5    	36.05368
795.0000      	12578.6    	36.34044
796.0000      	12562.8    	36.12669
797.0000      	12547.1    	36.04500
798.0000      	12531.3    	35.61264
799.0000      	12515.6    	35.45673
800.0000      	12500    	35.70863