File: data/Reflectance_measurements/Reflectance_2019_material/38/38_1.txt
Unit Serial No : 240-IM0P2424-EU
Integration Time : 10 ms
Time Average: 10
Binning Average: 2
FFT Smoothing: 0%
Project Name : RPS900-R
Sample Name :  SM240-IMOP2424-EU
Measurement No : 1
Measurement Time : 06/03/2019   15:02:26

Wavelength(nm)	Wavenumber(1/cm)	Transmittance(%)
300.0000      	33333.3    	12.85169
301.0000      	33222.6    	12.31820
302.0000      	33112.6    	12.21607
303.0000      	33003.3    	12.25304
304.0000      	32894.7    	11.13743
305.0000      	32786.9    	10.91547
306.0000      	32679.7    	11.28305
307.0000      	32573.3    	11.45864
308.0000      	32467.5    	12.14451
309.0000      	32362.5    	11.61591
310.0000      	32258.1    	10.21844
311.0000      	32154.3    	10.65423
312.0000      	32051.3    	10.47538
313.0000      	31948.9    	9.64742
314.0000      	31847.1    	8.84585
315.0000      	31746    	9.02505
316.0000      	31645.6    	9.45391
317.0000      	31545.7    	9.55627
318.0000      	31446.5    	9.67667
319.0000      	31348    	8.93339
320.0000      	31250    	8.48329
321.0000      	31152.6    	8.14179
322.0000      	31055.9    	8.52490
323.0000      	30959.8    	8.45197
324.0000      	30864.2    	8.19739
325.0000      	30769.2    	7.62904
326.0000      	30674.8    	7.40960
327.0000      	30581    	7.64494
328.0000      	30487.8    	7.71151
329.0000      	30395.1    	8.08056
330.0000      	30303    	7.69036
331.0000      	30211.5    	7.44103
332.0000      	30120.5    	7.46634
333.0000      	30030    	7.47649
334.0000      	29940.1    	7.48272
335.0000      	29850.7    	7.57434
336.0000      	29761.9    	7.51087
337.0000      	29673.6    	7.17969
338.0000      	29585.8    	7.19486
339.0000      	29498.5    	7.42968
340.0000      	29411.8    	7.63784
341.0000      	29325.5    	7.48925
342.0000      	29239.8    	7.43471
343.0000      	29154.5    	7.25240
344.0000      	29069.8    	7.08920
345.0000      	28985.5    	7.51671
346.0000      	28901.7    	7.60517
347.0000      	28818.4    	7.57657
348.0000      	28735.6    	7.22590
349.0000      	28653.3    	7.23425
350.0000      	28571.4    	7.57442
351.0000      	28490    	7.56471
352.0000      	28409.1    	7.59909
353.0000      	28328.6    	7.74770
354.0000      	28248.6    	7.89627
355.0000      	28169    	7.84184
356.0000      	28089.9    	8.17367
357.0000      	28011.2    	8.19996
358.0000      	27933    	8.26658
359.0000      	27855.2    	8.41663
360.0000      	27777.8    	8.63865
361.0000      	27700.8    	8.86539
362.0000      	27624.3    	8.83956
363.0000      	27548.2    	8.78799
364.0000      	27472.5    	8.80079
365.0000      	27397.3    	8.95951
366.0000      	27322.4    	9.38181
367.0000      	27248    	9.73452
368.0000      	27173.9    	9.98798
369.0000      	27100.3    	10.04283
370.0000      	27027    	9.91427
371.0000      	26954.2    	9.86021
372.0000      	26881.7    	10.07862
373.0000      	26809.7    	10.44091
374.0000      	26738    	10.70871
375.0000      	26666.7    	10.79977
376.0000      	26595.7    	10.88486
377.0000      	26525.2    	11.01007
378.0000      	26455    	11.34561
379.0000      	26385.2    	11.69827
380.0000      	26315.8    	12.04472
381.0000      	26246.7    	12.36527
382.0000      	26178    	12.54644
383.0000      	26109.7    	12.82545
384.0000      	26041.7    	13.01387
385.0000      	25974    	13.34350
386.0000      	25906.7    	13.57909
387.0000      	25839.8    	13.92307
388.0000      	25773.2    	14.04250
389.0000      	25706.9    	14.28438
390.0000      	25641    	14.68713
391.0000      	25575.4    	15.03200
392.0000      	25510.2    	15.19794
393.0000      	25445.3    	15.49609
394.0000      	25380.7    	15.81001
395.0000      	25316.5    	16.22386
396.0000      	25252.5    	16.61283
397.0000      	25188.9    	17.02865
398.0000      	25125.6    	17.41778
399.0000      	25062.7    	17.91154
400.0000      	25000    	18.44745
401.0000      	24937.7    	18.88636
402.0000      	24875.6    	19.06029
403.0000      	24813.9    	19.44471
404.0000      	24752.5    	20.01671
405.0000      	24691.4    	20.81259
406.0000      	24630.5    	21.39161
407.0000      	24570    	21.84076
408.0000      	24509.8    	22.31549
409.0000      	24449.9    	22.76194
410.0000      	24390.2    	23.31956
411.0000      	24330.9    	23.94043
412.0000      	24271.8    	24.25917
413.0000      	24213.1    	24.85122
414.0000      	24154.6    	25.33414
415.0000      	24096.4    	25.81039
416.0000      	24038.5    	26.29007
417.0000      	23980.8    	26.48149
418.0000      	23923.4    	26.54760
419.0000      	23866.3    	26.70336
420.0000      	23809.5    	26.90966
421.0000      	23753    	27.03112
422.0000      	23696.7    	27.29281
423.0000      	23640.7    	27.63314
424.0000      	23584.9    	28.04476
425.0000      	23529.4    	28.28020
426.0000      	23474.2    	28.50074
427.0000      	23419.2    	28.74658
428.0000      	23364.5    	28.85911
429.0000      	23310    	28.96849
430.0000      	23255.8    	29.06213
431.0000      	23201.9    	29.28858
432.0000      	23148.1    	29.53241
433.0000      	23094.7    	29.71095
434.0000      	23041.5    	29.83160
435.0000      	22988.5    	30.03730
436.0000      	22935.8    	30.25815
437.0000      	22883.3    	30.47854
438.0000      	22831.1    	30.56267
439.0000      	22779    	30.82734
440.0000      	22727.3    	31.17425
441.0000      	22675.7    	31.19876
442.0000      	22624.4    	31.12467
443.0000      	22573.4    	31.18259
444.0000      	22522.5    	31.32406
445.0000      	22471.9    	31.35006
446.0000      	22421.5    	31.34279
447.0000      	22371.4    	31.34368
448.0000      	22321.4    	31.27935
449.0000      	22271.7    	31.29293
450.0000      	22222.2    	31.28052
451.0000      	22172.9    	31.31599
452.0000      	22123.9    	31.48846
453.0000      	22075.1    	31.57392
454.0000      	22026.4    	31.62013
455.0000      	21978    	31.63606
456.0000      	21929.8    	31.81355
457.0000      	21881.8    	32.01604
458.0000      	21834.1    	32.20510
459.0000      	21786.5    	32.33156
460.0000      	21739.1    	32.44217
461.0000      	21692    	32.61265
462.0000      	21645    	32.68367
463.0000      	21598.3    	32.85733
464.0000      	21551.7    	32.95180
465.0000      	21505.4    	33.22235
466.0000      	21459.2    	33.41381
467.0000      	21413.3    	33.55613
468.0000      	21367.5    	33.73081
469.0000      	21322    	33.97036
470.0000      	21276.6    	34.10486
471.0000      	21231.4    	34.32700
472.0000      	21186.4    	34.65817
473.0000      	21141.6    	34.98393
474.0000      	21097    	35.28946
475.0000      	21052.6    	35.48604
476.0000      	21008.4    	35.69116
477.0000      	20964.4    	35.98379
478.0000      	20920.5    	36.15273
479.0000      	20876.8    	36.48923
480.0000      	20833.3    	36.77679
481.0000      	20790    	37.01550
482.0000      	20746.9    	37.26471
483.0000      	20703.9    	37.55518
484.0000      	20661.2    	37.87003
485.0000      	20618.6    	38.02236
486.0000      	20576.1    	38.30252
487.0000      	20533.9    	38.55483
488.0000      	20491.8    	38.85589
489.0000      	20449.9    	39.22151
490.0000      	20408.2    	39.50477
491.0000      	20366.6    	39.76701
492.0000      	20325.2    	39.95311
493.0000      	20284    	40.25178
494.0000      	20242.9    	40.48164
495.0000      	20202    	40.66571
496.0000      	20161.3    	40.89064
497.0000      	20120.7    	41.10693
498.0000      	20080.3    	41.27393
499.0000      	20040.1    	41.33362
500.0000      	20000    	41.44505
501.0000      	19960.1    	41.54807
502.0000      	19920.3    	41.59200
503.0000      	19880.7    	41.57582
504.0000      	19841.3    	41.65176
505.0000      	19802    	41.60184
506.0000      	19762.8    	41.53366
507.0000      	19723.9    	41.40721
508.0000      	19685    	41.24405
509.0000      	19646.4    	41.05465
510.0000      	19607.8    	40.77950
511.0000      	19569.5    	40.48386
512.0000      	19531.2    	40.04276
513.0000      	19493.2    	39.75805
514.0000      	19455.3    	39.29724
515.0000      	19417.5    	38.83458
516.0000      	19379.8    	38.31775
517.0000      	19342.4    	37.69151
518.0000      	19305    	37.11469
519.0000      	19267.8    	36.82992
520.0000      	19230.8    	36.28658
521.0000      	19193.9    	35.63827
522.0000      	19157.1    	34.98123
523.0000      	19120.5    	34.34679
524.0000      	19084    	33.78683
525.0000      	19047.6    	33.16430
526.0000      	19011.4    	32.88133
527.0000      	18975.3    	32.37904
528.0000      	18939.4    	31.88976
529.0000      	18903.6    	31.50062
530.0000      	18867.9    	31.15467
531.0000      	18832.4    	30.83877
532.0000      	18797    	30.48980
533.0000      	18761.7    	30.31551
534.0000      	18726.6    	29.98965
535.0000      	18691.6    	29.72828
536.0000      	18656.7    	29.61896
537.0000      	18622    	29.52032
538.0000      	18587.4    	29.42904
539.0000      	18552.9    	29.36025
540.0000      	18518.5    	29.25670
541.0000      	18484.3    	29.20083
542.0000      	18450.2    	29.22525
543.0000      	18416.2    	29.25780
544.0000      	18382.4    	29.19806
545.0000      	18348.6    	29.17930
546.0000      	18315    	29.17019
547.0000      	18281.5    	29.22857
548.0000      	18248.2    	29.14466
549.0000      	18214.9    	28.95672
550.0000      	18181.8    	28.81543
551.0000      	18148.8    	28.74199
552.0000      	18115.9    	28.53882
553.0000      	18083.2    	28.25853
554.0000      	18050.5    	27.98125
555.0000      	18018    	27.59745
556.0000      	17985.6    	27.20434
557.0000      	17953.3    	26.81759
558.0000      	17921.1    	26.66163
559.0000      	17889.1    	26.26251
560.0000      	17857.1    	25.87422
561.0000      	17825.3    	25.49827
562.0000      	17793.6    	25.14698
563.0000      	17762    	24.79175
564.0000      	17730.5    	24.60634
565.0000      	17699.1    	24.24280
566.0000      	17667.8    	24.02204
567.0000      	17636.7    	23.81276
568.0000      	17605.6    	23.68052
569.0000      	17574.7    	23.60920
570.0000      	17543.9    	23.60843
571.0000      	17513.1    	23.61144
572.0000      	17482.5    	23.69139
573.0000      	17452    	23.80210
574.0000      	17421.6    	23.96581
575.0000      	17391.3    	24.09076
576.0000      	17361.1    	24.44410
577.0000      	17331    	24.86723
578.0000      	17301    	25.36382
579.0000      	17271.2    	25.94337
580.0000      	17241.4    	26.47691
581.0000      	17211.7    	26.77785
582.0000      	17182.1    	27.35779
583.0000      	17152.7    	27.93698
584.0000      	17123.3    	28.50066
585.0000      	17094    	29.14694
586.0000      	17064.8    	29.72132
587.0000      	17035.8    	30.01807
588.0000      	17006.8    	30.55065
589.0000      	16977.9    	31.05234
590.0000      	16949.2    	31.47040
591.0000      	16920.5    	31.91039
592.0000      	16891.9    	32.28714
593.0000      	16863.4    	32.44255
594.0000      	16835    	32.66607
595.0000      	16806.7    	32.89430
596.0000      	16778.5    	33.10707
597.0000      	16750.4    	33.30788
598.0000      	16722.4    	33.41055
599.0000      	16694.5    	33.44260
600.0000      	16666.7    	33.47482
601.0000      	16638.9    	33.50908
602.0000      	16611.3    	33.50225
603.0000      	16583.7    	33.51237
604.0000      	16556.3    	33.46129
605.0000      	16528.9    	33.35109
606.0000      	16501.7    	33.37655
607.0000      	16474.5    	33.35670
608.0000      	16447.4    	33.28531
609.0000      	16420.4    	33.29449
610.0000      	16393.4    	33.34858
611.0000      	16366.6    	33.46063
612.0000      	16339.9    	33.40793
613.0000      	16313.2    	33.22796
614.0000      	16286.6    	33.18629
615.0000      	16260.2    	33.20383
616.0000      	16233.8    	33.17601
617.0000      	16207.5    	33.20462
618.0000      	16181.2    	33.20440
619.0000      	16155.1    	33.28683
620.0000      	16129    	33.33374
621.0000      	16103.1    	33.36052
622.0000      	16077.2    	33.35986
623.0000      	16051.4    	33.36259
624.0000      	16025.6    	33.35256
625.0000      	16000    	33.35274
626.0000      	15974.4    	33.37222
627.0000      	15949    	33.39880
628.0000      	15923.6    	33.46955
629.0000      	15898.3    	33.57077
630.0000      	15873    	33.59828
631.0000      	15847.9    	33.61456
632.0000      	15822.8    	33.64109
633.0000      	15797.8    	33.65272
634.0000      	15772.9    	33.70402
635.0000      	15748    	33.87240
636.0000      	15723.3    	33.87239
637.0000      	15698.6    	33.94321
638.0000      	15674    	33.97150
639.0000      	15649.5    	34.12183
640.0000      	15625    	34.24348
641.0000      	15600.6    	34.45694
642.0000      	15576.3    	34.57309
643.0000      	15552.1    	34.77524
644.0000      	15528    	34.92305
645.0000      	15503.9    	35.06999
646.0000      	15479.9    	35.26999
647.0000      	15456    	35.36488
648.0000      	15432.1    	35.54617
649.0000      	15408.3    	35.75199
650.0000      	15384.6    	36.08224
651.0000      	15361    	36.35833
652.0000      	15337.4    	36.51339
653.0000      	15313.9    	36.61264
654.0000      	15290.5    	36.77916
655.0000      	15267.2    	37.09137
656.0000      	15243.9    	37.37640
657.0000      	15220.7    	37.61934
658.0000      	15197.6    	37.79823
659.0000      	15174.5    	38.00613
660.0000      	15151.5    	38.20980
661.0000      	15128.6    	38.38365
662.0000      	15105.7    	38.65750
663.0000      	15083    	38.78926
664.0000      	15060.2    	38.94224
665.0000      	15037.6    	39.08526
666.0000      	15015    	39.19779
667.0000      	14992.5    	39.23543
668.0000      	14970.1    	39.27048
669.0000      	14947.7    	39.35958
670.0000      	14925.4    	39.52176
671.0000      	14903.1    	39.58706
672.0000      	14881    	39.50215
673.0000      	14858.8    	39.43656
674.0000      	14836.8    	39.35077
675.0000      	14814.8    	39.29916
676.0000      	14792.9    	39.30500
677.0000      	14771    	39.31415
678.0000      	14749.3    	39.29283
679.0000      	14727.5    	39.18848
680.0000      	14705.9    	39.03813
681.0000      	14684.3    	38.96967
682.0000      	14662.8    	38.81843
683.0000      	14641.3    	38.72117
684.0000      	14619.9    	38.58052
685.0000      	14598.5    	38.36621
686.0000      	14577.3    	38.21806
687.0000      	14556    	38.01661
688.0000      	14534.9    	38.02623
689.0000      	14513.8    	37.93419
690.0000      	14492.8    	37.88149
691.0000      	14471.8    	37.69931
692.0000      	14450.9    	37.53945
693.0000      	14430    	37.48819
694.0000      	14409.2    	37.39686
695.0000      	14388.5    	37.32588
696.0000      	14367.8    	37.18156
697.0000      	14347.2    	36.99773
698.0000      	14326.6    	36.94169
699.0000      	14306.2    	36.73698
700.0000      	14285.7    	36.67297
701.0000      	14265.3    	36.41399
702.0000      	14245    	36.15954
703.0000      	14224.8    	35.98613
704.0000      	14204.5    	35.83671
705.0000      	14184.4    	35.75326
706.0000      	14164.3    	35.49211
707.0000      	14144.3    	35.33168
708.0000      	14124.3    	35.26001
709.0000      	14104.4    	35.20293
710.0000      	14084.5    	35.12393
711.0000      	14064.7    	35.16925
712.0000      	14044.9    	35.07200
713.0000      	14025.2    	35.05073
714.0000      	14005.6    	34.94914
715.0000      	13986    	35.03544
716.0000      	13966.5    	35.09907
717.0000      	13947    	35.19991
718.0000      	13927.6    	35.21885
719.0000      	13908.2    	35.40331
720.0000      	13888.9    	35.57666
721.0000      	13869.6    	35.81645
722.0000      	13850.4    	36.06686
723.0000      	13831.3    	36.25357
724.0000      	13812.2    	36.49802
725.0000      	13793.1    	36.60954
726.0000      	13774.1    	36.87479
727.0000      	13755.2    	37.06894
728.0000      	13736.3    	37.21665
729.0000      	13717.4    	37.61498
730.0000      	13698.6    	38.16539
731.0000      	13679.9    	38.65017
732.0000      	13661.2    	38.85787
733.0000      	13642.6    	39.05608
734.0000      	13624    	39.56632
735.0000      	13605.4    	40.17712
736.0000      	13587    	40.68728
737.0000      	13568.5    	40.98933
738.0000      	13550.1    	41.61745
739.0000      	13531.8    	42.26302
740.0000      	13513.5    	42.84994
741.0000      	13495.3    	43.53251
742.0000      	13477.1    	43.94985
743.0000      	13459    	44.93763
744.0000      	13440.9    	45.83273
745.0000      	13422.8    	46.71923
746.0000      	13404.8    	47.62609
747.0000      	13386.9    	48.09774
748.0000      	13369    	49.06794
749.0000      	13351.1    	49.94697
750.0000      	13333.3    	51.01463
751.0000      	13315.6    	51.51479
752.0000      	13297.9    	52.59266
753.0000      	13280.2    	53.85896
754.0000      	13262.6    	55.03501
755.0000      	13245    	56.05186
756.0000      	13227.5    	56.57093
757.0000      	13210    	57.57237
758.0000      	13192.6    	58.73391
759.0000      	13175.2    	59.71305
760.0000      	13157.9    	60.54285
761.0000      	13140.6    	60.91269
762.0000      	13123.4    	61.47008
763.0000      	13106.2    	62.12995
764.0000      	13089    	62.98120
765.0000      	13071.9    	63.35190
766.0000      	13054.8    	63.73152
767.0000      	13037.8    	63.95769
768.0000      	13020.8    	64.30053
769.0000      	13003.9    	64.88000
770.0000      	12987    	65.14327
771.0000      	12970.2    	65.70432
772.0000      	12953.4    	65.83692
773.0000      	12936.6    	66.02922
774.0000      	12919.9    	66.15427
775.0000      	12903.2    	66.34207
776.0000      	12886.6    	66.28265
777.0000      	12870    	66.17769
778.0000      	12853.5    	66.22912
779.0000      	12837    	66.49717
780.0000      	12820.5    	66.70886
781.0000      	12804.1    	66.74807
782.0000      	12787.7    	66.88406
783.0000      	12771.4    	67.13944
784.0000      	12755.1    	67.28995
785.0000      	12738.9    	67.34748
786.0000      	12722.6    	67.46866
787.0000      	12706.5    	67.44541
788.0000      	12690.4    	67.70110
789.0000      	12674.3    	67.71537
790.0000      	12658.2    	67.68181
791.0000      	12642.2    	67.11578
792.0000      	12626.3    	66.76098
793.0000      	12610.3    	66.60241
794.0000      	12594.5    	66.55564
795.0000      	12578.6    	66.87955
796.0000      	12562.8    	67.17056
797.0000      	12547.1    	67.33964
798.0000      	12531.3    	66.86693
799.0000      	12515.6    	66.73349
800.0000      	12500    	66.97301