File: data/Reflectance_measurements/Reflectance_2019_material/38/38_2.txt
Unit Serial No : 240-IM0P2424-EU
Integration Time : 10 ms
Time Average: 10
Binning Average: 2
FFT Smoothing: 0%
Project Name : RPS900-R
Sample Name :  SM240-IMOP2424-EU
Measurement No : 1
Measurement Time : 06/03/2019   15:02:36

Wavelength(nm)	Wavenumber(1/cm)	Transmittance(%)
300.0000      	33333.3    	14.31635
301.0000      	33222.6    	12.93626
302.0000      	33112.6    	12.45775
303.0000      	33003.3    	12.83334
304.0000      	32894.7    	12.00663
305.0000      	32786.9    	11.61418
306.0000      	32679.7    	12.03182
307.0000      	32573.3    	11.83018
308.0000      	32467.5    	12.10614
309.0000      	32362.5    	11.92194
310.0000      	32258.1    	10.63851
311.0000      	32154.3    	10.41633
312.0000      	32051.3    	9.59653
313.0000      	31948.9    	9.18861
314.0000      	31847.1    	8.76959
315.0000      	31746    	8.56163
316.0000      	31645.6    	8.57021
317.0000      	31545.7    	8.61921
318.0000      	31446.5    	9.20802
319.0000      	31348    	9.32396
320.0000      	31250    	9.64453
321.0000      	31152.6    	8.92381
322.0000      	31055.9    	8.58975
323.0000      	30959.8    	8.11452
324.0000      	30864.2    	8.08380
325.0000      	30769.2    	8.14047
326.0000      	30674.8    	8.65116
327.0000      	30581    	8.65310
328.0000      	30487.8    	8.04468
329.0000      	30395.1    	7.79605
330.0000      	30303    	7.62733
331.0000      	30211.5    	7.74031
332.0000      	30120.5    	7.73534
333.0000      	30030    	7.49695
334.0000      	29940.1    	7.23924
335.0000      	29850.7    	7.26143
336.0000      	29761.9    	7.56120
337.0000      	29673.6    	7.56035
338.0000      	29585.8    	7.58228
339.0000      	29498.5    	7.53468
340.0000      	29411.8    	7.58844
341.0000      	29325.5    	7.42718
342.0000      	29239.8    	7.62265
343.0000      	29154.5    	7.51461
344.0000      	29069.8    	7.42265
345.0000      	28985.5    	7.41142
346.0000      	28901.7    	7.20627
347.0000      	28818.4    	7.32304
348.0000      	28735.6    	7.27562
349.0000      	28653.3    	7.40027
350.0000      	28571.4    	7.55205
351.0000      	28490    	7.65494
352.0000      	28409.1    	7.80735
353.0000      	28328.6    	8.16429
354.0000      	28248.6    	8.35825
355.0000      	28169    	8.14398
356.0000      	28089.9    	8.28418
357.0000      	28011.2    	8.38329
358.0000      	27933    	8.63025
359.0000      	27855.2    	8.85783
360.0000      	27777.8    	8.98658
361.0000      	27700.8    	9.21343
362.0000      	27624.3    	9.18506
363.0000      	27548.2    	9.21962
364.0000      	27472.5    	9.26267
365.0000      	27397.3    	9.35427
366.0000      	27322.4    	9.51505
367.0000      	27248    	9.75681
368.0000      	27173.9    	9.88372
369.0000      	27100.3    	9.89817
370.0000      	27027    	10.04305
371.0000      	26954.2    	10.14611
372.0000      	26881.7    	10.47701
373.0000      	26809.7    	10.66815
374.0000      	26738    	10.69441
375.0000      	26666.7    	10.70845
376.0000      	26595.7    	10.92753
377.0000      	26525.2    	11.36759
378.0000      	26455    	11.70828
379.0000      	26385.2    	12.10931
380.0000      	26315.8    	12.36619
381.0000      	26246.7    	12.47000
382.0000      	26178    	12.56401
383.0000      	26109.7    	12.91825
384.0000      	26041.7    	13.20782
385.0000      	25974    	13.45223
386.0000      	25906.7    	13.61305
387.0000      	25839.8    	13.97588
388.0000      	25773.2    	14.17624
389.0000      	25706.9    	14.55421
390.0000      	25641    	14.99814
391.0000      	25575.4    	15.36774
392.0000      	25510.2    	15.59608
393.0000      	25445.3    	16.01487
394.0000      	25380.7    	16.36777
395.0000      	25316.5    	16.70316
396.0000      	25252.5    	17.04160
397.0000      	25188.9    	17.30848
398.0000      	25125.6    	17.75877
399.0000      	25062.7    	18.20435
400.0000      	25000    	18.65971
401.0000      	24937.7    	19.09759
402.0000      	24875.6    	19.36060
403.0000      	24813.9    	19.90299
404.0000      	24752.5    	20.51464
405.0000      	24691.4    	21.16839
406.0000      	24630.5    	21.66417
407.0000      	24570    	22.27698
408.0000      	24509.8    	22.80073
409.0000      	24449.9    	23.17241
410.0000      	24390.2    	23.72589
411.0000      	24330.9    	24.43378
412.0000      	24271.8    	24.76376
413.0000      	24213.1    	25.34355
414.0000      	24154.6    	25.78150
415.0000      	24096.4    	26.26177
416.0000      	24038.5    	26.68665
417.0000      	23980.8    	26.89815
418.0000      	23923.4    	26.89599
419.0000      	23866.3    	27.09871
420.0000      	23809.5    	27.44365
421.0000      	23753    	27.64083
422.0000      	23696.7    	27.82290
423.0000      	23640.7    	28.02712
424.0000      	23584.9    	28.44530
425.0000      	23529.4    	28.72106
426.0000      	23474.2    	28.91227
427.0000      	23419.2    	28.99891
428.0000      	23364.5    	29.07848
429.0000      	23310    	29.24283
430.0000      	23255.8    	29.39146
431.0000      	23201.9    	29.55505
432.0000      	23148.1    	29.77005
433.0000      	23094.7    	30.09207
434.0000      	23041.5    	30.35481
435.0000      	22988.5    	30.56848
436.0000      	22935.8    	30.64130
437.0000      	22883.3    	30.76983
438.0000      	22831.1    	30.78940
439.0000      	22779    	30.94290
440.0000      	22727.3    	31.24525
441.0000      	22675.7    	31.57265
442.0000      	22624.4    	31.58528
443.0000      	22573.4    	31.54648
444.0000      	22522.5    	31.53465
445.0000      	22471.9    	31.62797
446.0000      	22421.5    	31.69876
447.0000      	22371.4    	31.85540
448.0000      	22321.4    	31.75677
449.0000      	22271.7    	31.62978
450.0000      	22222.2    	31.59302
451.0000      	22172.9    	31.64662
452.0000      	22123.9    	31.75782
453.0000      	22075.1    	31.88691
454.0000      	22026.4    	32.15868
455.0000      	21978    	32.26398
456.0000      	21929.8    	32.43446
457.0000      	21881.8    	32.53759
458.0000      	21834.1    	32.60443
459.0000      	21786.5    	32.76879
460.0000      	21739.1    	32.94825
461.0000      	21692    	33.22026
462.0000      	21645    	33.32213
463.0000      	21598.3    	33.40739
464.0000      	21551.7    	33.50728
465.0000      	21505.4    	33.66471
466.0000      	21459.2    	33.97602
467.0000      	21413.3    	34.06740
468.0000      	21367.5    	34.20482
469.0000      	21322    	34.37547
470.0000      	21276.6    	34.54645
471.0000      	21231.4    	34.89371
472.0000      	21186.4    	35.15877
473.0000      	21141.6    	35.40095
474.0000      	21097    	35.72259
475.0000      	21052.6    	36.08699
476.0000      	21008.4    	36.42220
477.0000      	20964.4    	36.66763
478.0000      	20920.5    	36.75305
479.0000      	20876.8    	36.97777
480.0000      	20833.3    	37.30332
481.0000      	20790    	37.60590
482.0000      	20746.9    	37.86047
483.0000      	20703.9    	38.16434
484.0000      	20661.2    	38.39311
485.0000      	20618.6    	38.53244
486.0000      	20576.1    	38.79604
487.0000      	20533.9    	39.13758
488.0000      	20491.8    	39.38812
489.0000      	20449.9    	39.71860
490.0000      	20408.2    	40.05414
491.0000      	20366.6    	40.39021
492.0000      	20325.2    	40.58334
493.0000      	20284    	40.89282
494.0000      	20242.9    	41.17239
495.0000      	20202    	41.29583
496.0000      	20161.3    	41.46216
497.0000      	20120.7    	41.57769
498.0000      	20080.3    	41.75880
499.0000      	20040.1    	41.87615
500.0000      	20000    	42.10367
501.0000      	19960.1    	42.21621
502.0000      	19920.3    	42.21041
503.0000      	19880.7    	42.21461
504.0000      	19841.3    	42.28904
505.0000      	19802    	42.22018
506.0000      	19762.8    	42.17135
507.0000      	19723.9    	42.01017
508.0000      	19685    	41.86749
509.0000      	19646.4    	41.60106
510.0000      	19607.8    	41.26638
511.0000      	19569.5    	40.93231
512.0000      	19531.2    	40.56819
513.0000      	19493.2    	40.35229
514.0000      	19455.3    	39.91232
515.0000      	19417.5    	39.42929
516.0000      	19379.8    	38.91050
517.0000      	19342.4    	38.33015
518.0000      	19305    	37.67990
519.0000      	19267.8    	37.34571
520.0000      	19230.8    	36.65694
521.0000      	19193.9    	36.04768
522.0000      	19157.1    	35.48846
523.0000      	19120.5    	34.92154
524.0000      	19084    	34.33950
525.0000      	19047.6    	33.72165
526.0000      	19011.4    	33.46601
527.0000      	18975.3    	32.97071
528.0000      	18939.4    	32.49456
529.0000      	18903.6    	32.07038
530.0000      	18867.9    	31.67397
531.0000      	18832.4    	31.30806
532.0000      	18797    	30.93925
533.0000      	18761.7    	30.76141
534.0000      	18726.6    	30.48069
535.0000      	18691.6    	30.27850
536.0000      	18656.7    	30.02096
537.0000      	18622    	29.80245
538.0000      	18587.4    	29.72652
539.0000      	18552.9    	29.74788
540.0000      	18518.5    	29.78016
541.0000      	18484.3    	29.73752
542.0000      	18450.2    	29.64234
543.0000      	18416.2    	29.67824
544.0000      	18382.4    	29.69017
545.0000      	18348.6    	29.69132
546.0000      	18315    	29.65139
547.0000      	18281.5    	29.62277
548.0000      	18248.2    	29.55383
549.0000      	18214.9    	29.43931
550.0000      	18181.8    	29.26352
551.0000      	18148.8    	29.16740
552.0000      	18115.9    	28.90026
553.0000      	18083.2    	28.62764
554.0000      	18050.5    	28.31193
555.0000      	18018    	27.99412
556.0000      	17985.6    	27.65520
557.0000      	17953.3    	27.23960
558.0000      	17921.1    	27.04448
559.0000      	17889.1    	26.58830
560.0000      	17857.1    	26.18763
561.0000      	17825.3    	25.83058
562.0000      	17793.6    	25.52816
563.0000      	17762    	25.24342
564.0000      	17730.5    	25.05999
565.0000      	17699.1    	24.71483
566.0000      	17667.8    	24.39968
567.0000      	17636.7    	24.21204
568.0000      	17605.6    	24.07202
569.0000      	17574.7    	23.99055
570.0000      	17543.9    	23.96477
571.0000      	17513.1    	23.93417
572.0000      	17482.5    	24.05840
573.0000      	17452    	24.23355
574.0000      	17421.6    	24.49389
575.0000      	17391.3    	24.64774
576.0000      	17361.1    	25.05420
577.0000      	17331    	25.46652
578.0000      	17301    	25.84470
579.0000      	17271.2    	26.28430
580.0000      	17241.4    	26.82296
581.0000      	17211.7    	27.13646
582.0000      	17182.1    	27.83566
583.0000      	17152.7    	28.41172
584.0000      	17123.3    	29.01811
585.0000      	17094    	29.63731
586.0000      	17064.8    	30.19031
587.0000      	17035.8    	30.46399
588.0000      	17006.8    	30.91158
589.0000      	16977.9    	31.36566
590.0000      	16949.2    	31.83551
591.0000      	16920.5    	32.36248
592.0000      	16891.9    	32.77317
593.0000      	16863.4    	32.92688
594.0000      	16835    	33.14990
595.0000      	16806.7    	33.34579
596.0000      	16778.5    	33.59056
597.0000      	16750.4    	33.76501
598.0000      	16722.4    	33.85434
599.0000      	16694.5    	33.81702
600.0000      	16666.7    	33.85804
601.0000      	16638.9    	33.88227
602.0000      	16611.3    	33.99470
603.0000      	16583.7    	34.01307
604.0000      	16556.3    	33.98505
605.0000      	16528.9    	33.88472
606.0000      	16501.7    	33.88702
607.0000      	16474.5    	33.85601
608.0000      	16447.4    	33.78852
609.0000      	16420.4    	33.80828
610.0000      	16393.4    	33.83819
611.0000      	16366.6    	33.92226
612.0000      	16339.9    	33.92920
613.0000      	16313.2    	33.84819
614.0000      	16286.6    	33.79629
615.0000      	16260.2    	33.78696
616.0000      	16233.8    	33.76789
617.0000      	16207.5    	33.74939
618.0000      	16181.2    	33.77750
619.0000      	16155.1    	33.84727
620.0000      	16129    	33.82707
621.0000      	16103.1    	33.77393
622.0000      	16077.2    	33.70010
623.0000      	16051.4    	33.72890
624.0000      	16025.6    	33.78606
625.0000      	16000    	33.89721
626.0000      	15974.4    	33.93430
627.0000      	15949    	33.95210
628.0000      	15923.6    	33.91937
629.0000      	15898.3    	33.97891
630.0000      	15873    	33.98891
631.0000      	15847.9    	34.10126
632.0000      	15822.8    	34.11144
633.0000      	15797.8    	34.17556
634.0000      	15772.9    	34.23561
635.0000      	15748    	34.34676
636.0000      	15723.3    	34.36479
637.0000      	15698.6    	34.41910
638.0000      	15674    	34.50630
639.0000      	15649.5    	34.62462
640.0000      	15625    	34.80029
641.0000      	15600.6    	34.89994
642.0000      	15576.3    	34.98480
643.0000      	15552.1    	35.17907
644.0000      	15528    	35.43106
645.0000      	15503.9    	35.65177
646.0000      	15479.9    	35.81483
647.0000      	15456    	35.88980
648.0000      	15432.1    	36.08149
649.0000      	15408.3    	36.29087
650.0000      	15384.6    	36.56599
651.0000      	15361    	36.73899
652.0000      	15337.4    	36.83650
653.0000      	15313.9    	36.95761
654.0000      	15290.5    	37.28313
655.0000      	15267.2    	37.81186
656.0000      	15243.9    	38.11832
657.0000      	15220.7    	38.21638
658.0000      	15197.6    	38.27990
659.0000      	15174.5    	38.40865
660.0000      	15151.5    	38.73066
661.0000      	15128.6    	38.87476
662.0000      	15105.7    	39.17684
663.0000      	15083    	39.27445
664.0000      	15060.2    	39.42249
665.0000      	15037.6    	39.55933
666.0000      	15015    	39.80056
667.0000      	14992.5    	39.90548
668.0000      	14970.1    	39.93502
669.0000      	14947.7    	39.98972
670.0000      	14925.4    	39.94023
671.0000      	14903.1    	39.93644
672.0000      	14881    	39.90471
673.0000      	14858.8    	39.97118
674.0000      	14836.8    	39.93473
675.0000      	14814.8    	39.89303
676.0000      	14792.9    	39.82198
677.0000      	14771    	39.85190
678.0000      	14749.3    	39.80772
679.0000      	14727.5    	39.72085
680.0000      	14705.9    	39.54611
681.0000      	14684.3    	39.50003
682.0000      	14662.8    	39.38484
683.0000      	14641.3    	39.30243
684.0000      	14619.9    	39.16461
685.0000      	14598.5    	38.93201
686.0000      	14577.3    	38.74163
687.0000      	14556    	38.49546
688.0000      	14534.9    	38.46989
689.0000      	14513.8    	38.33994
690.0000      	14492.8    	38.45174
691.0000      	14471.8    	38.34193
692.0000      	14450.9    	38.09077
693.0000      	14430    	37.96578
694.0000      	14409.2    	37.88306
695.0000      	14388.5    	37.79802
696.0000      	14367.8    	37.64709
697.0000      	14347.2    	37.42877
698.0000      	14326.6    	37.35286
699.0000      	14306.2    	37.12862
700.0000      	14285.7    	37.00021
701.0000      	14265.3    	36.98761
702.0000      	14245    	36.81942
703.0000      	14224.8    	36.63062
704.0000      	14204.5    	36.30949
705.0000      	14184.4    	36.19503
706.0000      	14164.3    	35.98901
707.0000      	14144.3    	35.86274
708.0000      	14124.3    	35.88061
709.0000      	14104.4    	35.88230
710.0000      	14084.5    	35.74185
711.0000      	14064.7    	35.62871
712.0000      	14044.9    	35.40410
713.0000      	14025.2    	35.35917
714.0000      	14005.6    	35.28327
715.0000      	13986    	35.47152
716.0000      	13966.5    	35.59334
717.0000      	13947    	35.84580
718.0000      	13927.6    	35.90956
719.0000      	13908.2    	36.15350
720.0000      	13888.9    	36.29145
721.0000      	13869.6    	36.36854
722.0000      	13850.4    	36.51659
723.0000      	13831.3    	36.70474
724.0000      	13812.2    	37.15095
725.0000      	13793.1    	37.38367
726.0000      	13774.1    	37.73235
727.0000      	13755.2    	38.06265
728.0000      	13736.3    	38.23857
729.0000      	13717.4    	38.67154
730.0000      	13698.6    	38.99750
731.0000      	13679.9    	39.22244
732.0000      	13661.2    	39.38768
733.0000      	13642.6    	39.76712
734.0000      	13624    	40.36581
735.0000      	13605.4    	40.92241
736.0000      	13587    	41.40269
737.0000      	13568.5    	41.65464
738.0000      	13550.1    	42.31768
739.0000      	13531.8    	42.93713
740.0000      	13513.5    	43.56771
741.0000      	13495.3    	44.20743
742.0000      	13477.1    	44.52193
743.0000      	13459    	45.43356
744.0000      	13440.9    	46.39493
745.0000      	13422.8    	47.42630
746.0000      	13404.8    	48.13253
747.0000      	13386.9    	48.56286
748.0000      	13369    	49.41594
749.0000      	13351.1    	50.36604
750.0000      	13333.3    	51.58513
751.0000      	13315.6    	52.26141
752.0000      	13297.9    	53.37730
753.0000      	13280.2    	54.44319
754.0000      	13262.6    	55.51400
755.0000      	13245    	56.73223
756.0000      	13227.5    	57.16860
757.0000      	13210    	57.99917
758.0000      	13192.6    	58.81371
759.0000      	13175.2    	59.87229
760.0000      	13157.9    	60.96101
761.0000      	13140.6    	61.53582
762.0000      	13123.4    	62.41124
763.0000      	13106.2    	63.23703
764.0000      	13089    	63.86174
765.0000      	13071.9    	64.20739
766.0000      	13054.8    	64.75918
767.0000      	13037.8    	65.15675
768.0000      	13020.8    	65.49107
769.0000      	13003.9    	65.89894
770.0000      	12987    	66.13956
771.0000      	12970.2    	66.68555
772.0000      	12953.4    	66.94200
773.0000      	12936.6    	67.13154
774.0000      	12919.9    	67.22256
775.0000      	12903.2    	67.39700
776.0000      	12886.6    	67.50025
777.0000      	12870    	67.51267
778.0000      	12853.5    	67.47777
779.0000      	12837    	67.59941
780.0000      	12820.5    	67.28768
781.0000      	12804.1    	67.24186
782.0000      	12787.7    	67.65762
783.0000      	12771.4    	68.19758
784.0000      	12755.1    	68.28820
785.0000      	12738.9    	68.44564
786.0000      	12722.6    	68.25862
787.0000      	12706.5    	67.87948
788.0000      	12690.4    	68.13670
789.0000      	12674.3    	68.42870
790.0000      	12658.2    	68.70156
791.0000      	12642.2    	68.21174
792.0000      	12626.3    	68.01215
793.0000      	12610.3    	68.02703
794.0000      	12594.5    	68.18796
795.0000      	12578.6    	68.23084
796.0000      	12562.8    	68.38786
797.0000      	12547.1    	68.65287
798.0000      	12531.3    	68.53854
799.0000      	12515.6    	68.11835
800.0000      	12500    	68.14258