File: data/Reflectance_measurements/Reflectance_2019_material/38/38_3.txt
Unit Serial No : 240-IM0P2424-EU
Integration Time : 10 ms
Time Average: 10
Binning Average: 2
FFT Smoothing: 0%
Project Name : RPS900-R
Sample Name :  SM240-IMOP2424-EU
Measurement No : 1
Measurement Time : 06/03/2019   15:02:57

Wavelength(nm)	Wavenumber(1/cm)	Transmittance(%)
300.0000      	33333.3    	14.84817
301.0000      	33222.6    	12.98317
302.0000      	33112.6    	10.76200
303.0000      	33003.3    	10.47588
304.0000      	32894.7    	11.77885
305.0000      	32786.9    	12.68843
306.0000      	32679.7    	12.42949
307.0000      	32573.3    	11.17998
308.0000      	32467.5    	10.67882
309.0000      	32362.5    	10.77469
310.0000      	32258.1    	11.31205
311.0000      	32154.3    	12.04244
312.0000      	32051.3    	10.56043
313.0000      	31948.9    	9.28461
314.0000      	31847.1    	9.23561
315.0000      	31746    	9.99520
316.0000      	31645.6    	10.31960
317.0000      	31545.7    	9.81066
318.0000      	31446.5    	9.62519
319.0000      	31348    	8.72745
320.0000      	31250    	9.13828
321.0000      	31152.6    	9.38142
322.0000      	31055.9    	9.10577
323.0000      	30959.8    	8.08289
324.0000      	30864.2    	7.38175
325.0000      	30769.2    	7.25649
326.0000      	30674.8    	7.68794
327.0000      	30581    	8.03816
328.0000      	30487.8    	7.44560
329.0000      	30395.1    	7.23599
330.0000      	30303    	7.25933
331.0000      	30211.5    	7.82592
332.0000      	30120.5    	8.12398
333.0000      	30030    	7.98852
334.0000      	29940.1    	7.65189
335.0000      	29850.7    	7.34337
336.0000      	29761.9    	7.63167
337.0000      	29673.6    	7.69236
338.0000      	29585.8    	7.98530
339.0000      	29498.5    	7.68342
340.0000      	29411.8    	7.47942
341.0000      	29325.5    	7.21768
342.0000      	29239.8    	7.68493
343.0000      	29154.5    	7.82555
344.0000      	29069.8    	7.60049
345.0000      	28985.5    	7.46784
346.0000      	28901.7    	7.37941
347.0000      	28818.4    	7.47146
348.0000      	28735.6    	7.74890
349.0000      	28653.3    	8.14479
350.0000      	28571.4    	8.11053
351.0000      	28490    	7.73939
352.0000      	28409.1    	7.56915
353.0000      	28328.6    	7.97182
354.0000      	28248.6    	8.41190
355.0000      	28169    	8.24240
356.0000      	28089.9    	8.43276
357.0000      	28011.2    	8.40247
358.0000      	27933    	8.58318
359.0000      	27855.2    	8.86099
360.0000      	27777.8    	9.11318
361.0000      	27700.8    	9.24397
362.0000      	27624.3    	9.13948
363.0000      	27548.2    	9.38205
364.0000      	27472.5    	9.56094
365.0000      	27397.3    	9.75413
366.0000      	27322.4    	9.82469
367.0000      	27248    	9.75287
368.0000      	27173.9    	9.82760
369.0000      	27100.3    	10.09743
370.0000      	27027    	10.26663
371.0000      	26954.2    	10.33906
372.0000      	26881.7    	10.43415
373.0000      	26809.7    	10.45723
374.0000      	26738    	10.60921
375.0000      	26666.7    	10.91693
376.0000      	26595.7    	11.30612
377.0000      	26525.2    	11.48750
378.0000      	26455    	11.56911
379.0000      	26385.2    	11.79794
380.0000      	26315.8    	12.34926
381.0000      	26246.7    	12.86238
382.0000      	26178    	13.04875
383.0000      	26109.7    	13.16308
384.0000      	26041.7    	13.26313
385.0000      	25974    	13.47150
386.0000      	25906.7    	13.88566
387.0000      	25839.8    	14.39836
388.0000      	25773.2    	14.57746
389.0000      	25706.9    	14.85844
390.0000      	25641    	15.09859
391.0000      	25575.4    	15.33582
392.0000      	25510.2    	15.49469
393.0000      	25445.3    	15.99553
394.0000      	25380.7    	16.38746
395.0000      	25316.5    	16.64284
396.0000      	25252.5    	16.99557
397.0000      	25188.9    	17.26937
398.0000      	25125.6    	17.80194
399.0000      	25062.7    	18.29187
400.0000      	25000    	18.86427
401.0000      	24937.7    	19.30488
402.0000      	24875.6    	19.60505
403.0000      	24813.9    	19.98598
404.0000      	24752.5    	20.46446
405.0000      	24691.4    	21.19257
406.0000      	24630.5    	21.77556
407.0000      	24570    	22.29571
408.0000      	24509.8    	22.86991
409.0000      	24449.9    	23.34617
410.0000      	24390.2    	23.94454
411.0000      	24330.9    	24.47231
412.0000      	24271.8    	24.74632
413.0000      	24213.1    	25.19823
414.0000      	24154.6    	25.71357
415.0000      	24096.4    	26.23911
416.0000      	24038.5    	26.52230
417.0000      	23980.8    	26.74913
418.0000      	23923.4    	26.77369
419.0000      	23866.3    	27.06042
420.0000      	23809.5    	27.24629
421.0000      	23753    	27.41593
422.0000      	23696.7    	27.51668
423.0000      	23640.7    	27.75923
424.0000      	23584.9    	28.13904
425.0000      	23529.4    	28.46578
426.0000      	23474.2    	28.72664
427.0000      	23419.2    	28.90000
428.0000      	23364.5    	29.01437
429.0000      	23310    	29.21254
430.0000      	23255.8    	29.34913
431.0000      	23201.9    	29.59836
432.0000      	23148.1    	29.87592
433.0000      	23094.7    	30.07994
434.0000      	23041.5    	30.14266
435.0000      	22988.5    	30.32849
436.0000      	22935.8    	30.63481
437.0000      	22883.3    	30.99412
438.0000      	22831.1    	31.00769
439.0000      	22779    	31.01134
440.0000      	22727.3    	31.07137
441.0000      	22675.7    	31.36945
442.0000      	22624.4    	31.59674
443.0000      	22573.4    	31.67207
444.0000      	22522.5    	31.65639
445.0000      	22471.9    	31.65686
446.0000      	22421.5    	31.61257
447.0000      	22371.4    	31.56891
448.0000      	22321.4    	31.43872
449.0000      	22271.7    	31.36046
450.0000      	22222.2    	31.34820
451.0000      	22172.9    	31.37379
452.0000      	22123.9    	31.55558
453.0000      	22075.1    	31.78674
454.0000      	22026.4    	31.97846
455.0000      	21978    	32.03232
456.0000      	21929.8    	32.18419
457.0000      	21881.8    	32.33283
458.0000      	21834.1    	32.43433
459.0000      	21786.5    	32.56178
460.0000      	21739.1    	32.79243
461.0000      	21692    	33.05976
462.0000      	21645    	33.15614
463.0000      	21598.3    	33.35496
464.0000      	21551.7    	33.53399
465.0000      	21505.4    	33.71389
466.0000      	21459.2    	33.79897
467.0000      	21413.3    	33.84346
468.0000      	21367.5    	34.03298
469.0000      	21322    	34.31516
470.0000      	21276.6    	34.49912
471.0000      	21231.4    	34.80883
472.0000      	21186.4    	35.14192
473.0000      	21141.6    	35.39992
474.0000      	21097    	35.61632
475.0000      	21052.6    	35.85346
476.0000      	21008.4    	36.19200
477.0000      	20964.4    	36.48099
478.0000      	20920.5    	36.62593
479.0000      	20876.8    	36.83116
480.0000      	20833.3    	37.06786
481.0000      	20790    	37.40207
482.0000      	20746.9    	37.77193
483.0000      	20703.9    	38.06217
484.0000      	20661.2    	38.27237
485.0000      	20618.6    	38.40710
486.0000      	20576.1    	38.69837
487.0000      	20533.9    	38.99967
488.0000      	20491.8    	39.29079
489.0000      	20449.9    	39.59470
490.0000      	20408.2    	39.86356
491.0000      	20366.6    	40.20741
492.0000      	20325.2    	40.38074
493.0000      	20284    	40.68882
494.0000      	20242.9    	40.92111
495.0000      	20202    	41.02107
496.0000      	20161.3    	41.21496
497.0000      	20120.7    	41.40547
498.0000      	20080.3    	41.64779
499.0000      	20040.1    	41.69624
500.0000      	20000    	41.80431
501.0000      	19960.1    	41.83229
502.0000      	19920.3    	41.89547
503.0000      	19880.7    	41.92212
504.0000      	19841.3    	42.01404
505.0000      	19802    	41.98652
506.0000      	19762.8    	41.91804
507.0000      	19723.9    	41.69003
508.0000      	19685    	41.46905
509.0000      	19646.4    	41.24562
510.0000      	19607.8    	40.96959
511.0000      	19569.5    	40.66623
512.0000      	19531.2    	40.23483
513.0000      	19493.2    	40.00954
514.0000      	19455.3    	39.55067
515.0000      	19417.5    	39.11163
516.0000      	19379.8    	38.60440
517.0000      	19342.4    	38.00889
518.0000      	19305    	37.42788
519.0000      	19267.8    	37.15078
520.0000      	19230.8    	36.60925
521.0000      	19193.9    	35.98605
522.0000      	19157.1    	35.34492
523.0000      	19120.5    	34.71867
524.0000      	19084    	34.08072
525.0000      	19047.6    	33.39478
526.0000      	19011.4    	33.09765
527.0000      	18975.3    	32.58804
528.0000      	18939.4    	32.13585
529.0000      	18903.6    	31.82350
530.0000      	18867.9    	31.48194
531.0000      	18832.4    	31.09871
532.0000      	18797    	30.78310
533.0000      	18761.7    	30.66918
534.0000      	18726.6    	30.44810
535.0000      	18691.6    	30.19625
536.0000      	18656.7    	29.94476
537.0000      	18622    	29.81048
538.0000      	18587.4    	29.72268
539.0000      	18552.9    	29.69960
540.0000      	18518.5    	29.67847
541.0000      	18484.3    	29.60994
542.0000      	18450.2    	29.57431
543.0000      	18416.2    	29.55002
544.0000      	18382.4    	29.50458
545.0000      	18348.6    	29.52011
546.0000      	18315    	29.50377
547.0000      	18281.5    	29.44915
548.0000      	18248.2    	29.29820
549.0000      	18214.9    	29.17640
550.0000      	18181.8    	29.12410
551.0000      	18148.8    	29.06623
552.0000      	18115.9    	28.82641
553.0000      	18083.2    	28.48480
554.0000      	18050.5    	28.14819
555.0000      	18018    	27.77856
556.0000      	17985.6    	27.41915
557.0000      	17953.3    	27.05486
558.0000      	17921.1    	26.89309
559.0000      	17889.1    	26.54202
560.0000      	17857.1    	26.19068
561.0000      	17825.3    	25.83142
562.0000      	17793.6    	25.49335
563.0000      	17762    	25.18165
564.0000      	17730.5    	25.00833
565.0000      	17699.1    	24.68053
566.0000      	17667.8    	24.40584
567.0000      	17636.7    	24.20988
568.0000      	17605.6    	24.07802
569.0000      	17574.7    	24.00412
570.0000      	17543.9    	23.98689
571.0000      	17513.1    	23.96043
572.0000      	17482.5    	23.99444
573.0000      	17452    	24.14316
574.0000      	17421.6    	24.41433
575.0000      	17391.3    	24.58034
576.0000      	17361.1    	24.91455
577.0000      	17331    	25.25072
578.0000      	17301    	25.62238
579.0000      	17271.2    	26.17760
580.0000      	17241.4    	26.79631
581.0000      	17211.7    	27.11293
582.0000      	17182.1    	27.70739
583.0000      	17152.7    	28.22888
584.0000      	17123.3    	28.81164
585.0000      	17094    	29.41945
586.0000      	17064.8    	29.98982
587.0000      	17035.8    	30.26494
588.0000      	17006.8    	30.78855
589.0000      	16977.9    	31.26948
590.0000      	16949.2    	31.74071
591.0000      	16920.5    	32.18139
592.0000      	16891.9    	32.57126
593.0000      	16863.4    	32.70585
594.0000      	16835    	32.93193
595.0000      	16806.7    	33.20139
596.0000      	16778.5    	33.40990
597.0000      	16750.4    	33.59924
598.0000      	16722.4    	33.71255
599.0000      	16694.5    	33.75095
600.0000      	16666.7    	33.76057
601.0000      	16638.9    	33.84015
602.0000      	16611.3    	33.92474
603.0000      	16583.7    	33.95542
604.0000      	16556.3    	33.91021
605.0000      	16528.9    	33.86237
606.0000      	16501.7    	33.85204
607.0000      	16474.5    	33.75004
608.0000      	16447.4    	33.56481
609.0000      	16420.4    	33.53126
610.0000      	16393.4    	33.54638
611.0000      	16366.6    	33.68240
612.0000      	16339.9    	33.70744
613.0000      	16313.2    	33.74695
614.0000      	16286.6    	33.72905
615.0000      	16260.2    	33.68732
616.0000      	16233.8    	33.55352
617.0000      	16207.5    	33.48181
618.0000      	16181.2    	33.51519
619.0000      	16155.1    	33.62540
620.0000      	16129    	33.68871
621.0000      	16103.1    	33.67795
622.0000      	16077.2    	33.55124
623.0000      	16051.4    	33.52092
624.0000      	16025.6    	33.58678
625.0000      	16000    	33.71286
626.0000      	15974.4    	33.75603
627.0000      	15949    	33.85042
628.0000      	15923.6    	33.86513
629.0000      	15898.3    	33.88682
630.0000      	15873    	33.89440
631.0000      	15847.9    	33.97943
632.0000      	15822.8    	34.00182
633.0000      	15797.8    	34.02150
634.0000      	15772.9    	34.00760
635.0000      	15748    	34.10736
636.0000      	15723.3    	34.16966
637.0000      	15698.6    	34.28357
638.0000      	15674    	34.35384
639.0000      	15649.5    	34.46158
640.0000      	15625    	34.54793
641.0000      	15600.6    	34.68006
642.0000      	15576.3    	34.74730
643.0000      	15552.1    	34.94539
644.0000      	15528    	35.14625
645.0000      	15503.9    	35.37175
646.0000      	15479.9    	35.64745
647.0000      	15456    	35.76748
648.0000      	15432.1    	35.95337
649.0000      	15408.3    	36.11911
650.0000      	15384.6    	36.37764
651.0000      	15361    	36.56628
652.0000      	15337.4    	36.76671
653.0000      	15313.9    	36.88048
654.0000      	15290.5    	37.13908
655.0000      	15267.2    	37.41433
656.0000      	15243.9    	37.64270
657.0000      	15220.7    	37.86155
658.0000      	15197.6    	37.96299
659.0000      	15174.5    	38.16559
660.0000      	15151.5    	38.46333
661.0000      	15128.6    	38.65790
662.0000      	15105.7    	38.88315
663.0000      	15083    	38.95837
664.0000      	15060.2    	39.17901
665.0000      	15037.6    	39.33413
666.0000      	15015    	39.54508
667.0000      	14992.5    	39.66935
668.0000      	14970.1    	39.68339
669.0000      	14947.7    	39.65958
670.0000      	14925.4    	39.67740
671.0000      	14903.1    	39.75829
672.0000      	14881    	39.73846
673.0000      	14858.8    	39.71872
674.0000      	14836.8    	39.64199
675.0000      	14814.8    	39.61648
676.0000      	14792.9    	39.49708
677.0000      	14771    	39.43996
678.0000      	14749.3    	39.42207
679.0000      	14727.5    	39.42527
680.0000      	14705.9    	39.33655
681.0000      	14684.3    	39.23098
682.0000      	14662.8    	39.08778
683.0000      	14641.3    	38.96464
684.0000      	14619.9    	38.82457
685.0000      	14598.5    	38.73676
686.0000      	14577.3    	38.56273
687.0000      	14556    	38.30734
688.0000      	14534.9    	38.22942
689.0000      	14513.8    	38.15826
690.0000      	14492.8    	38.22313
691.0000      	14471.8    	38.16196
692.0000      	14450.9    	37.86717
693.0000      	14430    	37.78199
694.0000      	14409.2    	37.66128
695.0000      	14388.5    	37.65450
696.0000      	14367.8    	37.53065
697.0000      	14347.2    	37.33342
698.0000      	14326.6    	37.26228
699.0000      	14306.2    	37.08049
700.0000      	14285.7    	36.94804
701.0000      	14265.3    	36.78712
702.0000      	14245    	36.68932
703.0000      	14224.8    	36.58231
704.0000      	14204.5    	36.31330
705.0000      	14184.4    	36.06136
706.0000      	14164.3    	35.75251
707.0000      	14144.3    	35.73026
708.0000      	14124.3    	35.73861
709.0000      	14104.4    	35.70245
710.0000      	14084.5    	35.52315
711.0000      	14064.7    	35.35052
712.0000      	14044.9    	35.19196
713.0000      	14025.2    	35.20530
714.0000      	14005.6    	35.33465
715.0000      	13986    	35.50716
716.0000      	13966.5    	35.56085
717.0000      	13947    	35.57653
718.0000      	13927.6    	35.62061
719.0000      	13908.2    	35.81084
720.0000      	13888.9    	35.96098
721.0000      	13869.6    	36.15266
722.0000      	13850.4    	36.30467
723.0000      	13831.3    	36.42905
724.0000      	13812.2    	36.73014
725.0000      	13793.1    	37.09843
726.0000      	13774.1    	37.63409
727.0000      	13755.2    	37.87853
728.0000      	13736.3    	37.94840
729.0000      	13717.4    	38.27289
730.0000      	13698.6    	38.59786
731.0000      	13679.9    	39.07993
732.0000      	13661.2    	39.19963
733.0000      	13642.6    	39.64357
734.0000      	13624    	40.08434
735.0000      	13605.4    	40.61013
736.0000      	13587    	40.94335
737.0000      	13568.5    	41.28355
738.0000      	13550.1    	42.12431
739.0000      	13531.8    	42.86428
740.0000      	13513.5    	43.33095
741.0000      	13495.3    	43.87582
742.0000      	13477.1    	44.33685
743.0000      	13459    	45.32478
744.0000      	13440.9    	46.24685
745.0000      	13422.8    	46.85935
746.0000      	13404.8    	47.54473
747.0000      	13386.9    	47.95954
748.0000      	13369    	49.13231
749.0000      	13351.1    	50.27165
750.0000      	13333.3    	51.50102
751.0000      	13315.6    	51.94756
752.0000      	13297.9    	52.76369
753.0000      	13280.2    	53.91587
754.0000      	13262.6    	55.23550
755.0000      	13245    	56.39714
756.0000      	13227.5    	56.89262
757.0000      	13210    	57.83694
758.0000      	13192.6    	58.62971
759.0000      	13175.2    	59.64973
760.0000      	13157.9    	60.83540
761.0000      	13140.6    	61.38796
762.0000      	13123.4    	62.25652
763.0000      	13106.2    	62.87350
764.0000      	13089    	63.23030
765.0000      	13071.9    	63.39182
766.0000      	13054.8    	63.96167
767.0000      	13037.8    	64.38441
768.0000      	13020.8    	64.78047
769.0000      	13003.9    	65.10027
770.0000      	12987    	65.24916
771.0000      	12970.2    	65.55087
772.0000      	12953.4    	65.94024
773.0000      	12936.6    	66.57809
774.0000      	12919.9    	66.85194
775.0000      	12903.2    	66.97060
776.0000      	12886.6    	66.84229
777.0000      	12870    	66.91901
778.0000      	12853.5    	66.94485
779.0000      	12837    	67.18616
780.0000      	12820.5    	67.04118
781.0000      	12804.1    	66.99693
782.0000      	12787.7    	66.87897
783.0000      	12771.4    	67.35665
784.0000      	12755.1    	67.56361
785.0000      	12738.9    	68.14455
786.0000      	12722.6    	67.88243
787.0000      	12706.5    	67.44048
788.0000      	12690.4    	67.46558
789.0000      	12674.3    	67.47266
790.0000      	12658.2    	67.83086
791.0000      	12642.2    	67.84631
792.0000      	12626.3    	67.63243
793.0000      	12610.3    	67.39329
794.0000      	12594.5    	67.11641
795.0000      	12578.6    	67.28605
796.0000      	12562.8    	67.58075
797.0000      	12547.1    	67.81830
798.0000      	12531.3    	67.95002
799.0000      	12515.6    	67.79160
800.0000      	12500    	67.83089