File: data/Reflectance_measurements/Reflectance_2019_material/50/50.txt
Unit Serial No : 240-IM0P2424-EU
Integration Time : 10 ms
Time Average: 10
Binning Average: 2
FFT Smoothing: 0%
Project Name : RPS900-R
Sample Name :  SM240-IMOP2424-EU
Measurement No : 1
Measurement Time : 06/03/2019   14:40:40

Wavelength(nm)	Wavenumber(1/cm)	Transmittance(%)
300.0000      	33333.3    	11.67224
301.0000      	33222.6    	12.63029
302.0000      	33112.6    	11.43205
303.0000      	33003.3    	10.40525
304.0000      	32894.7    	10.61810
305.0000      	32786.9    	9.58969
306.0000      	32679.7    	9.22977
307.0000      	32573.3    	9.62333
308.0000      	32467.5    	9.67509
309.0000      	32362.5    	8.99615
310.0000      	32258.1    	8.49116
311.0000      	32154.3    	8.75101
312.0000      	32051.3    	8.07335
313.0000      	31948.9    	8.53780
314.0000      	31847.1    	9.12425
315.0000      	31746    	8.79802
316.0000      	31645.6    	8.03773
317.0000      	31545.7    	7.42776
318.0000      	31446.5    	7.72011
319.0000      	31348    	7.67241
320.0000      	31250    	8.18682
321.0000      	31152.6    	7.86019
322.0000      	31055.9    	7.54400
323.0000      	30959.8    	7.60659
324.0000      	30864.2    	7.30830
325.0000      	30769.2    	7.16335
326.0000      	30674.8    	6.95193
327.0000      	30581    	6.70458
328.0000      	30487.8    	6.57597
329.0000      	30395.1    	7.39504
330.0000      	30303    	7.75918
331.0000      	30211.5    	7.49975
332.0000      	30120.5    	7.43038
333.0000      	30030    	7.35582
334.0000      	29940.1    	7.44557
335.0000      	29850.7    	6.87175
336.0000      	29761.9    	6.59859
337.0000      	29673.6    	6.82667
338.0000      	29585.8    	6.95737
339.0000      	29498.5    	6.88370
340.0000      	29411.8    	6.86162
341.0000      	29325.5    	6.98269
342.0000      	29239.8    	6.93643
343.0000      	29154.5    	6.69354
344.0000      	29069.8    	6.78419
345.0000      	28985.5    	6.89351
346.0000      	28901.7    	6.86590
347.0000      	28818.4    	6.74787
348.0000      	28735.6    	6.67757
349.0000      	28653.3    	6.58654
350.0000      	28571.4    	6.66341
351.0000      	28490    	6.69979
352.0000      	28409.1    	6.65669
353.0000      	28328.6    	6.75497
354.0000      	28248.6    	6.87319
355.0000      	28169    	6.77811
356.0000      	28089.9    	7.10336
357.0000      	28011.2    	7.16052
358.0000      	27933    	7.20934
359.0000      	27855.2    	7.35892
360.0000      	27777.8    	7.64039
361.0000      	27700.8    	7.74133
362.0000      	27624.3    	7.59388
363.0000      	27548.2    	7.46692
364.0000      	27472.5    	7.50557
365.0000      	27397.3    	7.57770
366.0000      	27322.4    	7.62944
367.0000      	27248    	7.85462
368.0000      	27173.9    	7.90015
369.0000      	27100.3    	7.89707
370.0000      	27027    	7.93506
371.0000      	26954.2    	7.92271
372.0000      	26881.7    	8.04986
373.0000      	26809.7    	8.24689
374.0000      	26738    	8.45148
375.0000      	26666.7    	8.47521
376.0000      	26595.7    	8.62884
377.0000      	26525.2    	8.76948
378.0000      	26455    	8.97476
379.0000      	26385.2    	9.23283
380.0000      	26315.8    	9.49973
381.0000      	26246.7    	9.61057
382.0000      	26178    	9.70213
383.0000      	26109.7    	9.87174
384.0000      	26041.7    	9.96299
385.0000      	25974    	10.21847
386.0000      	25906.7    	10.47311
387.0000      	25839.8    	10.79015
388.0000      	25773.2    	10.86717
389.0000      	25706.9    	11.06186
390.0000      	25641    	11.40348
391.0000      	25575.4    	11.46881
392.0000      	25510.2    	11.56655
393.0000      	25445.3    	11.63974
394.0000      	25380.7    	11.93852
395.0000      	25316.5    	12.23964
396.0000      	25252.5    	12.68409
397.0000      	25188.9    	12.95987
398.0000      	25125.6    	13.26564
399.0000      	25062.7    	13.64571
400.0000      	25000    	13.97683
401.0000      	24937.7    	14.21189
402.0000      	24875.6    	14.32608
403.0000      	24813.9    	14.59513
404.0000      	24752.5    	14.85027
405.0000      	24691.4    	15.18173
406.0000      	24630.5    	15.47598
407.0000      	24570    	15.91578
408.0000      	24509.8    	16.37876
409.0000      	24449.9    	16.79417
410.0000      	24390.2    	17.15147
411.0000      	24330.9    	17.47785
412.0000      	24271.8    	17.57980
413.0000      	24213.1    	17.94808
414.0000      	24154.6    	18.21003
415.0000      	24096.4    	18.48959
416.0000      	24038.5    	18.51717
417.0000      	23980.8    	18.68621
418.0000      	23923.4    	18.85507
419.0000      	23866.3    	19.06356
420.0000      	23809.5    	19.11182
421.0000      	23753    	19.23601
422.0000      	23696.7    	19.40388
423.0000      	23640.7    	19.64338
424.0000      	23584.9    	19.77186
425.0000      	23529.4    	19.84414
426.0000      	23474.2    	20.06786
427.0000      	23419.2    	20.26042
428.0000      	23364.5    	20.23263
429.0000      	23310    	20.29778
430.0000      	23255.8    	20.36046
431.0000      	23201.9    	20.54090
432.0000      	23148.1    	20.70073
433.0000      	23094.7    	20.85322
434.0000      	23041.5    	20.92501
435.0000      	22988.5    	21.13977
436.0000      	22935.8    	21.30027
437.0000      	22883.3    	21.43423
438.0000      	22831.1    	21.44711
439.0000      	22779    	21.55969
440.0000      	22727.3    	21.69963
441.0000      	22675.7    	21.79148
442.0000      	22624.4    	21.94009
443.0000      	22573.4    	22.08684
444.0000      	22522.5    	22.18360
445.0000      	22471.9    	22.10623
446.0000      	22421.5    	22.02564
447.0000      	22371.4    	22.05168
448.0000      	22321.4    	22.13460
449.0000      	22271.7    	22.28225
450.0000      	22222.2    	22.15006
451.0000      	22172.9    	22.07944
452.0000      	22123.9    	22.18335
453.0000      	22075.1    	22.34194
454.0000      	22026.4    	22.56375
455.0000      	21978    	22.60588
456.0000      	21929.8    	22.75038
457.0000      	21881.8    	22.84093
458.0000      	21834.1    	22.88353
459.0000      	21786.5    	23.03697
460.0000      	21739.1    	23.13696
461.0000      	21692    	23.22603
462.0000      	21645    	23.23014
463.0000      	21598.3    	23.40512
464.0000      	21551.7    	23.50484
465.0000      	21505.4    	23.74476
466.0000      	21459.2    	23.86425
467.0000      	21413.3    	23.94208
468.0000      	21367.5    	24.05172
469.0000      	21322    	24.26979
470.0000      	21276.6    	24.39895
471.0000      	21231.4    	24.57345
472.0000      	21186.4    	24.73680
473.0000      	21141.6    	24.92016
474.0000      	21097    	25.16696
475.0000      	21052.6    	25.40846
476.0000      	21008.4    	25.64337
477.0000      	20964.4    	25.86516
478.0000      	20920.5    	25.95184
479.0000      	20876.8    	26.12565
480.0000      	20833.3    	26.35374
481.0000      	20790    	26.67622
482.0000      	20746.9    	26.97575
483.0000      	20703.9    	27.21843
484.0000      	20661.2    	27.42085
485.0000      	20618.6    	27.51314
486.0000      	20576.1    	27.76374
487.0000      	20533.9    	28.03841
488.0000      	20491.8    	28.33215
489.0000      	20449.9    	28.58611
490.0000      	20408.2    	28.80014
491.0000      	20366.6    	29.06943
492.0000      	20325.2    	29.22162
493.0000      	20284    	29.51079
494.0000      	20242.9    	29.72503
495.0000      	20202    	29.83819
496.0000      	20161.3    	29.97653
497.0000      	20120.7    	30.10688
498.0000      	20080.3    	30.30576
499.0000      	20040.1    	30.39030
500.0000      	20000    	30.53217
501.0000      	19960.1    	30.62438
502.0000      	19920.3    	30.78045
503.0000      	19880.7    	30.86885
504.0000      	19841.3    	30.87691
505.0000      	19802    	30.80909
506.0000      	19762.8    	30.75595
507.0000      	19723.9    	30.65875
508.0000      	19685    	30.50212
509.0000      	19646.4    	30.30674
510.0000      	19607.8    	30.04394
511.0000      	19569.5    	29.75665
512.0000      	19531.2    	29.39057
513.0000      	19493.2    	29.15487
514.0000      	19455.3    	28.74973
515.0000      	19417.5    	28.33193
516.0000      	19379.8    	27.85678
517.0000      	19342.4    	27.34974
518.0000      	19305    	26.80360
519.0000      	19267.8    	26.55350
520.0000      	19230.8    	26.01251
521.0000      	19193.9    	25.41307
522.0000      	19157.1    	24.79980
523.0000      	19120.5    	24.26791
524.0000      	19084    	23.82531
525.0000      	19047.6    	23.35036
526.0000      	19011.4    	23.11929
527.0000      	18975.3    	22.68365
528.0000      	18939.4    	22.22502
529.0000      	18903.6    	21.85970
530.0000      	18867.9    	21.53845
531.0000      	18832.4    	21.25774
532.0000      	18797    	20.95176
533.0000      	18761.7    	20.81499
534.0000      	18726.6    	20.60580
535.0000      	18691.6    	20.45076
536.0000      	18656.7    	20.30232
537.0000      	18622    	20.20304
538.0000      	18587.4    	20.12712
539.0000      	18552.9    	20.09173
540.0000      	18518.5    	20.03563
541.0000      	18484.3    	20.01170
542.0000      	18450.2    	19.99856
543.0000      	18416.2    	20.04219
544.0000      	18382.4    	20.05589
545.0000      	18348.6    	20.02847
546.0000      	18315    	19.95654
547.0000      	18281.5    	19.88404
548.0000      	18248.2    	19.83689
549.0000      	18214.9    	19.73783
550.0000      	18181.8    	19.67155
551.0000      	18148.8    	19.59742
552.0000      	18115.9    	19.40253
553.0000      	18083.2    	19.18473
554.0000      	18050.5    	18.92906
555.0000      	18018    	18.62459
556.0000      	17985.6    	18.30978
557.0000      	17953.3    	18.03229
558.0000      	17921.1    	17.87841
559.0000      	17889.1    	17.53948
560.0000      	17857.1    	17.20774
561.0000      	17825.3    	16.98210
562.0000      	17793.6    	16.74914
563.0000      	17762    	16.46089
564.0000      	17730.5    	16.31252
565.0000      	17699.1    	16.03690
566.0000      	17667.8    	15.85716
567.0000      	17636.7    	15.73100
568.0000      	17605.6    	15.64811
569.0000      	17574.7    	15.59335
570.0000      	17543.9    	15.58427
571.0000      	17513.1    	15.58001
572.0000      	17482.5    	15.64746
573.0000      	17452    	15.72484
574.0000      	17421.6    	15.90186
575.0000      	17391.3    	16.01302
576.0000      	17361.1    	16.29884
577.0000      	17331    	16.62441
578.0000      	17301    	17.00331
579.0000      	17271.2    	17.41121
580.0000      	17241.4    	17.78328
581.0000      	17211.7    	18.02411
582.0000      	17182.1    	18.55676
583.0000      	17152.7    	19.03397
584.0000      	17123.3    	19.48693
585.0000      	17094    	20.03576
586.0000      	17064.8    	20.54641
587.0000      	17035.8    	20.79766
588.0000      	17006.8    	21.21820
589.0000      	16977.9    	21.61246
590.0000      	16949.2    	21.98473
591.0000      	16920.5    	22.28883
592.0000      	16891.9    	22.56946
593.0000      	16863.4    	22.67055
594.0000      	16835    	22.87780
595.0000      	16806.7    	23.13229
596.0000      	16778.5    	23.29598
597.0000      	16750.4    	23.41924
598.0000      	16722.4    	23.49392
599.0000      	16694.5    	23.52384
600.0000      	16666.7    	23.61601
601.0000      	16638.9    	23.64595
602.0000      	16611.3    	23.70105
603.0000      	16583.7    	23.64816
604.0000      	16556.3    	23.61748
605.0000      	16528.9    	23.51068
606.0000      	16501.7    	23.56877
607.0000      	16474.5    	23.53484
608.0000      	16447.4    	23.54434
609.0000      	16420.4    	23.59113
610.0000      	16393.4    	23.58682
611.0000      	16366.6    	23.57324
612.0000      	16339.9    	23.55832
613.0000      	16313.2    	23.57559
614.0000      	16286.6    	23.56443
615.0000      	16260.2    	23.54005
616.0000      	16233.8    	23.52166
617.0000      	16207.5    	23.49570
618.0000      	16181.2    	23.49181
619.0000      	16155.1    	23.54213
620.0000      	16129    	23.59110
621.0000      	16103.1    	23.58765
622.0000      	16077.2    	23.52845
623.0000      	16051.4    	23.49248
624.0000      	16025.6    	23.53911
625.0000      	16000    	23.56045
626.0000      	15974.4    	23.58290
627.0000      	15949    	23.54880
628.0000      	15923.6    	23.61186
629.0000      	15898.3    	23.68644
630.0000      	15873    	23.67368
631.0000      	15847.9    	23.64660
632.0000      	15822.8    	23.66656
633.0000      	15797.8    	23.76888
634.0000      	15772.9    	23.91756
635.0000      	15748    	24.04932
636.0000      	15723.3    	24.08667
637.0000      	15698.6    	24.12141
638.0000      	15674    	24.15395
639.0000      	15649.5    	24.19843
640.0000      	15625    	24.29051
641.0000      	15600.6    	24.44743
642.0000      	15576.3    	24.54614
643.0000      	15552.1    	24.78151
644.0000      	15528    	24.92330
645.0000      	15503.9    	24.98120
646.0000      	15479.9    	25.06451
647.0000      	15456    	25.14440
648.0000      	15432.1    	25.33459
649.0000      	15408.3    	25.59688
650.0000      	15384.6    	25.85140
651.0000      	15361    	25.97445
652.0000      	15337.4    	26.14330
653.0000      	15313.9    	26.26493
654.0000      	15290.5    	26.49525
655.0000      	15267.2    	26.80028
656.0000      	15243.9    	27.01178
657.0000      	15220.7    	27.21151
658.0000      	15197.6    	27.28072
659.0000      	15174.5    	27.41956
660.0000      	15151.5    	27.62865
661.0000      	15128.6    	27.81100
662.0000      	15105.7    	28.05001
663.0000      	15083    	28.14777
664.0000      	15060.2    	28.27526
665.0000      	15037.6    	28.40241
666.0000      	15015    	28.55559
667.0000      	14992.5    	28.64099
668.0000      	14970.1    	28.70086
669.0000      	14947.7    	28.77541
670.0000      	14925.4    	28.80050
671.0000      	14903.1    	28.79049
672.0000      	14881    	28.72580
673.0000      	14858.8    	28.72884
674.0000      	14836.8    	28.66132
675.0000      	14814.8    	28.73618
676.0000      	14792.9    	28.72709
677.0000      	14771    	28.72674
678.0000      	14749.3    	28.68135
679.0000      	14727.5    	28.58000
680.0000      	14705.9    	28.47857
681.0000      	14684.3    	28.42280
682.0000      	14662.8    	28.35826
683.0000      	14641.3    	28.25191
684.0000      	14619.9    	28.16784
685.0000      	14598.5    	27.99287
686.0000      	14577.3    	27.87602
687.0000      	14556    	27.68367
688.0000      	14534.9    	27.62501
689.0000      	14513.8    	27.46535
690.0000      	14492.8    	27.49250
691.0000      	14471.8    	27.41610
692.0000      	14450.9    	27.24525
693.0000      	14430    	27.17531
694.0000      	14409.2    	26.99333
695.0000      	14388.5    	26.83386
696.0000      	14367.8    	26.72932
697.0000      	14347.2    	26.67617
698.0000      	14326.6    	26.65855
699.0000      	14306.2    	26.46447
700.0000      	14285.7    	26.35623
701.0000      	14265.3    	26.18915
702.0000      	14245    	26.03901
703.0000      	14224.8    	25.91743
704.0000      	14204.5    	25.74295
705.0000      	14184.4    	25.64500
706.0000      	14164.3    	25.41578
707.0000      	14144.3    	25.28651
708.0000      	14124.3    	25.20919
709.0000      	14104.4    	25.07131
710.0000      	14084.5    	24.95093
711.0000      	14064.7    	24.95590
712.0000      	14044.9    	24.88302
713.0000      	14025.2    	24.84585
714.0000      	14005.6    	24.81811
715.0000      	13986    	24.86971
716.0000      	13966.5    	25.04029
717.0000      	13947    	25.16064
718.0000      	13927.6    	25.25224
719.0000      	13908.2    	25.33931
720.0000      	13888.9    	25.40038
721.0000      	13869.6    	25.57256
722.0000      	13850.4    	25.87371
723.0000      	13831.3    	26.02776
724.0000      	13812.2    	26.34359
725.0000      	13793.1    	26.55092
726.0000      	13774.1    	26.93498
727.0000      	13755.2    	27.11600
728.0000      	13736.3    	27.25952
729.0000      	13717.4    	27.64557
730.0000      	13698.6    	28.13091
731.0000      	13679.9    	28.30857
732.0000      	13661.2    	28.39008
733.0000      	13642.6    	28.65036
734.0000      	13624    	29.16059
735.0000      	13605.4    	29.66162
736.0000      	13587    	30.12646
737.0000      	13568.5    	30.41880
738.0000      	13550.1    	31.26877
739.0000      	13531.8    	32.00388
740.0000      	13513.5    	32.68126
741.0000      	13495.3    	33.34608
742.0000      	13477.1    	33.71228
743.0000      	13459    	34.66756
744.0000      	13440.9    	35.61889
745.0000      	13422.8    	36.54443
746.0000      	13404.8    	37.25256
747.0000      	13386.9    	37.66653
748.0000      	13369    	38.66190
749.0000      	13351.1    	39.63998
750.0000      	13333.3    	40.83975
751.0000      	13315.6    	41.44223
752.0000      	13297.9    	42.64224
753.0000      	13280.2    	43.87128
754.0000      	13262.6    	45.16230
755.0000      	13245    	46.57519
756.0000      	13227.5    	47.09969
757.0000      	13210    	48.26028
758.0000      	13192.6    	49.33777
759.0000      	13175.2    	50.57894
760.0000      	13157.9    	51.77724
761.0000      	13140.6    	52.39384
762.0000      	13123.4    	53.39819
763.0000      	13106.2    	54.23597
764.0000      	13089    	54.91001
765.0000      	13071.9    	55.31483
766.0000      	13054.8    	56.07122
767.0000      	13037.8    	56.56679
768.0000      	13020.8    	57.04888
769.0000      	13003.9    	57.58025
770.0000      	12987    	57.96368
771.0000      	12970.2    	58.58498
772.0000      	12953.4    	59.16972
773.0000      	12936.6    	59.64645
774.0000      	12919.9    	59.82408
775.0000      	12903.2    	59.94013
776.0000      	12886.6    	60.04714
777.0000      	12870    	60.41926
778.0000      	12853.5    	60.67382
779.0000      	12837    	60.93267
780.0000      	12820.5    	60.75542
781.0000      	12804.1    	60.48928
782.0000      	12787.7    	60.55613
783.0000      	12771.4    	61.01742
784.0000      	12755.1    	61.14458
785.0000      	12738.9    	61.49965
786.0000      	12722.6    	61.59091
787.0000      	12706.5    	61.45977
788.0000      	12690.4    	61.49909
789.0000      	12674.3    	61.36592
790.0000      	12658.2    	61.67893
791.0000      	12642.2    	61.50368
792.0000      	12626.3    	61.10427
793.0000      	12610.3    	60.95670
794.0000      	12594.5    	61.28505
795.0000      	12578.6    	61.74402
796.0000      	12562.8    	61.87560
797.0000      	12547.1    	61.83160
798.0000      	12531.3    	61.52085
799.0000      	12515.6    	61.21713
800.0000      	12500    	61.49006