File: data/Reflectance_measurements/Reflectance_2019_material/50/50_2 .txt
Unit Serial No : 240-IM0P2424-EU
Integration Time : 10 ms
Time Average: 10
Binning Average: 2
FFT Smoothing: 0%
Project Name : RPS900-R
Sample Name :  SM240-IMOP2424-EU
Measurement No : 1
Measurement Time : 06/03/2019   14:43:37

Wavelength(nm)	Wavenumber(1/cm)	Transmittance(%)
300.0000      	33333.3    	12.62223
301.0000      	33222.6    	12.43855
302.0000      	33112.6    	10.16859
303.0000      	33003.3    	9.88222
304.0000      	32894.7    	11.58387
305.0000      	32786.9    	10.99233
306.0000      	32679.7    	11.35626
307.0000      	32573.3    	10.55860
308.0000      	32467.5    	10.35499
309.0000      	32362.5    	9.58900
310.0000      	32258.1    	10.12730
311.0000      	32154.3    	10.36496
312.0000      	32051.3    	9.68287
313.0000      	31948.9    	9.53396
314.0000      	31847.1    	9.96308
315.0000      	31746    	9.78689
316.0000      	31645.6    	9.13758
317.0000      	31545.7    	8.34872
318.0000      	31446.5    	8.53132
319.0000      	31348    	8.24761
320.0000      	31250    	8.73051
321.0000      	31152.6    	8.30543
322.0000      	31055.9    	8.28561
323.0000      	30959.8    	8.35003
324.0000      	30864.2    	7.92921
325.0000      	30769.2    	7.42281
326.0000      	30674.8    	7.39418
327.0000      	30581    	7.44475
328.0000      	30487.8    	7.14026
329.0000      	30395.1    	7.40625
330.0000      	30303    	7.34481
331.0000      	30211.5    	7.15236
332.0000      	30120.5    	7.10053
333.0000      	30030    	6.98356
334.0000      	29940.1    	7.42235
335.0000      	29850.7    	7.47240
336.0000      	29761.9    	7.11135
337.0000      	29673.6    	6.83772
338.0000      	29585.8    	7.00895
339.0000      	29498.5    	7.19344
340.0000      	29411.8    	7.10408
341.0000      	29325.5    	7.02647
342.0000      	29239.8    	6.92830
343.0000      	29154.5    	6.82968
344.0000      	29069.8    	6.95582
345.0000      	28985.5    	7.04516
346.0000      	28901.7    	6.84426
347.0000      	28818.4    	6.67828
348.0000      	28735.6    	6.92759
349.0000      	28653.3    	7.37969
350.0000      	28571.4    	7.47487
351.0000      	28490    	7.12070
352.0000      	28409.1    	6.85280
353.0000      	28328.6    	7.11416
354.0000      	28248.6    	7.40644
355.0000      	28169    	7.34769
356.0000      	28089.9    	7.48687
357.0000      	28011.2    	7.39757
358.0000      	27933    	7.45577
359.0000      	27855.2    	7.67033
360.0000      	27777.8    	7.84942
361.0000      	27700.8    	8.08353
362.0000      	27624.3    	8.18721
363.0000      	27548.2    	8.20140
364.0000      	27472.5    	8.03517
365.0000      	27397.3    	7.93703
366.0000      	27322.4    	8.06925
367.0000      	27248    	8.19487
368.0000      	27173.9    	8.21996
369.0000      	27100.3    	8.22845
370.0000      	27027    	8.30379
371.0000      	26954.2    	8.44665
372.0000      	26881.7    	8.69241
373.0000      	26809.7    	8.75653
374.0000      	26738    	8.66361
375.0000      	26666.7    	8.61678
376.0000      	26595.7    	8.90770
377.0000      	26525.2    	9.21332
378.0000      	26455    	9.50525
379.0000      	26385.2    	9.71507
380.0000      	26315.8    	9.90427
381.0000      	26246.7    	10.00763
382.0000      	26178    	10.16180
383.0000      	26109.7    	10.38682
384.0000      	26041.7    	10.49628
385.0000      	25974    	10.58742
386.0000      	25906.7    	10.86469
387.0000      	25839.8    	11.20371
388.0000      	25773.2    	11.27956
389.0000      	25706.9    	11.60363
390.0000      	25641    	11.94367
391.0000      	25575.4    	12.11652
392.0000      	25510.2    	12.21131
393.0000      	25445.3    	12.37878
394.0000      	25380.7    	12.63676
395.0000      	25316.5    	12.87713
396.0000      	25252.5    	13.10272
397.0000      	25188.9    	13.38735
398.0000      	25125.6    	13.85669
399.0000      	25062.7    	14.31051
400.0000      	25000    	14.65378
401.0000      	24937.7    	15.02141
402.0000      	24875.6    	15.18186
403.0000      	24813.9    	15.46734
404.0000      	24752.5    	15.71239
405.0000      	24691.4    	16.17138
406.0000      	24630.5    	16.57648
407.0000      	24570    	16.98661
408.0000      	24509.8    	17.35617
409.0000      	24449.9    	17.61738
410.0000      	24390.2    	17.97482
411.0000      	24330.9    	18.31840
412.0000      	24271.8    	18.50882
413.0000      	24213.1    	18.85472
414.0000      	24154.6    	19.10660
415.0000      	24096.4    	19.28284
416.0000      	24038.5    	19.54872
417.0000      	23980.8    	19.95012
418.0000      	23923.4    	20.14574
419.0000      	23866.3    	20.21932
420.0000      	23809.5    	20.30035
421.0000      	23753    	20.38957
422.0000      	23696.7    	20.52671
423.0000      	23640.7    	20.72922
424.0000      	23584.9    	20.94398
425.0000      	23529.4    	21.05704
426.0000      	23474.2    	21.25633
427.0000      	23419.2    	21.41819
428.0000      	23364.5    	21.49625
429.0000      	23310    	21.55936
430.0000      	23255.8    	21.61527
431.0000      	23201.9    	21.77274
432.0000      	23148.1    	22.07051
433.0000      	23094.7    	22.32727
434.0000      	23041.5    	22.47584
435.0000      	22988.5    	22.59100
436.0000      	22935.8    	22.71447
437.0000      	22883.3    	22.84924
438.0000      	22831.1    	22.90641
439.0000      	22779    	22.98012
440.0000      	22727.3    	23.11516
441.0000      	22675.7    	23.17636
442.0000      	22624.4    	23.21593
443.0000      	22573.4    	23.42339
444.0000      	22522.5    	23.52061
445.0000      	22471.9    	23.45596
446.0000      	22421.5    	23.35543
447.0000      	22371.4    	23.37034
448.0000      	22321.4    	23.34382
449.0000      	22271.7    	23.47771
450.0000      	22222.2    	23.53603
451.0000      	22172.9    	23.52414
452.0000      	22123.9    	23.61731
453.0000      	22075.1    	23.68044
454.0000      	22026.4    	23.84819
455.0000      	21978    	23.93249
456.0000      	21929.8    	24.10908
457.0000      	21881.8    	24.18607
458.0000      	21834.1    	24.29732
459.0000      	21786.5    	24.49388
460.0000      	21739.1    	24.69920
461.0000      	21692    	24.84923
462.0000      	21645    	24.89882
463.0000      	21598.3    	24.95076
464.0000      	21551.7    	25.05906
465.0000      	21505.4    	25.31226
466.0000      	21459.2    	25.48877
467.0000      	21413.3    	25.52600
468.0000      	21367.5    	25.61955
469.0000      	21322    	25.81938
470.0000      	21276.6    	25.93683
471.0000      	21231.4    	26.14117
472.0000      	21186.4    	26.37574
473.0000      	21141.6    	26.58802
474.0000      	21097    	26.81161
475.0000      	21052.6    	27.02579
476.0000      	21008.4    	27.28923
477.0000      	20964.4    	27.56080
478.0000      	20920.5    	27.70427
479.0000      	20876.8    	27.95676
480.0000      	20833.3    	28.17867
481.0000      	20790    	28.45203
482.0000      	20746.9    	28.72553
483.0000      	20703.9    	28.92495
484.0000      	20661.2    	29.10693
485.0000      	20618.6    	29.21245
486.0000      	20576.1    	29.49058
487.0000      	20533.9    	29.84278
488.0000      	20491.8    	30.11454
489.0000      	20449.9    	30.38197
490.0000      	20408.2    	30.62570
491.0000      	20366.6    	30.87698
492.0000      	20325.2    	31.04633
493.0000      	20284    	31.29694
494.0000      	20242.9    	31.52838
495.0000      	20202    	31.68941
496.0000      	20161.3    	31.91871
497.0000      	20120.7    	32.10064
498.0000      	20080.3    	32.31911
499.0000      	20040.1    	32.42332
500.0000      	20000    	32.63641
501.0000      	19960.1    	32.69603
502.0000      	19920.3    	32.69436
503.0000      	19880.7    	32.67814
504.0000      	19841.3    	32.72772
505.0000      	19802    	32.68868
506.0000      	19762.8    	32.64101
507.0000      	19723.9    	32.47480
508.0000      	19685    	32.31381
509.0000      	19646.4    	32.07873
510.0000      	19607.8    	31.85784
511.0000      	19569.5    	31.59510
512.0000      	19531.2    	31.19622
513.0000      	19493.2    	30.94023
514.0000      	19455.3    	30.48076
515.0000      	19417.5    	29.96946
516.0000      	19379.8    	29.44222
517.0000      	19342.4    	28.89371
518.0000      	19305    	28.33861
519.0000      	19267.8    	28.04887
520.0000      	19230.8    	27.46984
521.0000      	19193.9    	26.86263
522.0000      	19157.1    	26.26948
523.0000      	19120.5    	25.68794
524.0000      	19084    	25.16405
525.0000      	19047.6    	24.56576
526.0000      	19011.4    	24.30823
527.0000      	18975.3    	23.86590
528.0000      	18939.4    	23.45029
529.0000      	18903.6    	23.03938
530.0000      	18867.9    	22.62560
531.0000      	18832.4    	22.30105
532.0000      	18797    	22.01711
533.0000      	18761.7    	21.88785
534.0000      	18726.6    	21.66424
535.0000      	18691.6    	21.51174
536.0000      	18656.7    	21.34509
537.0000      	18622    	21.17575
538.0000      	18587.4    	21.10927
539.0000      	18552.9    	21.07381
540.0000      	18518.5    	21.05322
541.0000      	18484.3    	21.01368
542.0000      	18450.2    	20.97797
543.0000      	18416.2    	20.94775
544.0000      	18382.4    	20.89279
545.0000      	18348.6    	20.90271
546.0000      	18315    	20.94116
547.0000      	18281.5    	21.00373
548.0000      	18248.2    	20.95141
549.0000      	18214.9    	20.78830
550.0000      	18181.8    	20.70325
551.0000      	18148.8    	20.63846
552.0000      	18115.9    	20.45678
553.0000      	18083.2    	20.21567
554.0000      	18050.5    	19.93621
555.0000      	18018    	19.58695
556.0000      	17985.6    	19.22235
557.0000      	17953.3    	18.92541
558.0000      	17921.1    	18.77049
559.0000      	17889.1    	18.45543
560.0000      	17857.1    	18.14563
561.0000      	17825.3    	17.82807
562.0000      	17793.6    	17.47858
563.0000      	17762    	17.18905
564.0000      	17730.5    	17.06181
565.0000      	17699.1    	16.85607
566.0000      	17667.8    	16.68628
567.0000      	17636.7    	16.48472
568.0000      	17605.6    	16.36178
569.0000      	17574.7    	16.35201
570.0000      	17543.9    	16.36209
571.0000      	17513.1    	16.33726
572.0000      	17482.5    	16.43012
573.0000      	17452    	16.58239
574.0000      	17421.6    	16.79738
575.0000      	17391.3    	16.89635
576.0000      	17361.1    	17.14608
577.0000      	17331    	17.46148
578.0000      	17301    	17.84815
579.0000      	17271.2    	18.30448
580.0000      	17241.4    	18.74421
581.0000      	17211.7    	19.02300
582.0000      	17182.1    	19.56762
583.0000      	17152.7    	20.08845
584.0000      	17123.3    	20.60433
585.0000      	17094    	21.14653
586.0000      	17064.8    	21.68124
587.0000      	17035.8    	21.93279
588.0000      	17006.8    	22.34574
589.0000      	16977.9    	22.79253
590.0000      	16949.2    	23.29600
591.0000      	16920.5    	23.71818
592.0000      	16891.9    	24.01673
593.0000      	16863.4    	24.13859
594.0000      	16835    	24.39565
595.0000      	16806.7    	24.58678
596.0000      	16778.5    	24.73204
597.0000      	16750.4    	24.90631
598.0000      	16722.4    	25.08540
599.0000      	16694.5    	25.09279
600.0000      	16666.7    	25.07580
601.0000      	16638.9    	25.08297
602.0000      	16611.3    	25.17913
603.0000      	16583.7    	25.16116
604.0000      	16556.3    	25.09897
605.0000      	16528.9    	24.98093
606.0000      	16501.7    	24.97246
607.0000      	16474.5    	24.96177
608.0000      	16447.4    	24.95418
609.0000      	16420.4    	24.96753
610.0000      	16393.4    	24.98722
611.0000      	16366.6    	25.03622
612.0000      	16339.9    	25.00813
613.0000      	16313.2    	24.98829
614.0000      	16286.6    	25.01472
615.0000      	16260.2    	25.01498
616.0000      	16233.8    	25.03964
617.0000      	16207.5    	25.05541
618.0000      	16181.2    	25.01246
619.0000      	16155.1    	24.99861
620.0000      	16129    	25.04083
621.0000      	16103.1    	25.05587
622.0000      	16077.2    	25.01571
623.0000      	16051.4    	24.93295
624.0000      	16025.6    	24.93458
625.0000      	16000    	24.99711
626.0000      	15974.4    	25.00486
627.0000      	15949    	25.04638
628.0000      	15923.6    	25.05874
629.0000      	15898.3    	25.14162
630.0000      	15873    	25.11520
631.0000      	15847.9    	25.20782
632.0000      	15822.8    	25.27151
633.0000      	15797.8    	25.37434
634.0000      	15772.9    	25.36960
635.0000      	15748    	25.43767
636.0000      	15723.3    	25.56632
637.0000      	15698.6    	25.65712
638.0000      	15674    	25.63457
639.0000      	15649.5    	25.67922
640.0000      	15625    	25.75299
641.0000      	15600.6    	25.89257
642.0000      	15576.3    	25.96643
643.0000      	15552.1    	26.16511
644.0000      	15528    	26.30451
645.0000      	15503.9    	26.46849
646.0000      	15479.9    	26.68789
647.0000      	15456    	26.76497
648.0000      	15432.1    	26.90444
649.0000      	15408.3    	27.06502
650.0000      	15384.6    	27.36992
651.0000      	15361    	27.55475
652.0000      	15337.4    	27.81427
653.0000      	15313.9    	27.87303
654.0000      	15290.5    	28.09660
655.0000      	15267.2    	28.34612
656.0000      	15243.9    	28.62220
657.0000      	15220.7    	28.86080
658.0000      	15197.6    	29.00270
659.0000      	15174.5    	29.18921
660.0000      	15151.5    	29.42441
661.0000      	15128.6    	29.62515
662.0000      	15105.7    	29.89718
663.0000      	15083    	30.00645
664.0000      	15060.2    	30.17433
665.0000      	15037.6    	30.36901
666.0000      	15015    	30.53488
667.0000      	14992.5    	30.60611
668.0000      	14970.1    	30.65633
669.0000      	14947.7    	30.78553
670.0000      	14925.4    	30.89221
671.0000      	14903.1    	30.86435
672.0000      	14881    	30.76623
673.0000      	14858.8    	30.69326
674.0000      	14836.8    	30.63709
675.0000      	14814.8    	30.59170
676.0000      	14792.9    	30.53130
677.0000      	14771    	30.50370
678.0000      	14749.3    	30.46525
679.0000      	14727.5    	30.33768
680.0000      	14705.9    	30.15276
681.0000      	14684.3    	30.11018
682.0000      	14662.8    	30.10656
683.0000      	14641.3    	30.03148
684.0000      	14619.9    	29.95096
685.0000      	14598.5    	29.81376
686.0000      	14577.3    	29.71159
687.0000      	14556    	29.59112
688.0000      	14534.9    	29.53028
689.0000      	14513.8    	29.33562
690.0000      	14492.8    	29.19803
691.0000      	14471.8    	29.16045
692.0000      	14450.9    	29.02579
693.0000      	14430    	28.98098
694.0000      	14409.2    	28.85316
695.0000      	14388.5    	28.75244
696.0000      	14367.8    	28.59904
697.0000      	14347.2    	28.37930
698.0000      	14326.6    	28.28434
699.0000      	14306.2    	28.08864
700.0000      	14285.7    	28.00662
701.0000      	14265.3    	27.85577
702.0000      	14245    	27.70240
703.0000      	14224.8    	27.61230
704.0000      	14204.5    	27.46382
705.0000      	14184.4    	27.31288
706.0000      	14164.3    	27.00472
707.0000      	14144.3    	26.91021
708.0000      	14124.3    	26.90013
709.0000      	14104.4    	26.80586
710.0000      	14084.5    	26.67023
711.0000      	14064.7    	26.57143
712.0000      	14044.9    	26.38306
713.0000      	14025.2    	26.31780
714.0000      	14005.6    	26.34476
715.0000      	13986    	26.48118
716.0000      	13966.5    	26.56151
717.0000      	13947    	26.59010
718.0000      	13927.6    	26.62496
719.0000      	13908.2    	26.82645
720.0000      	13888.9    	26.99561
721.0000      	13869.6    	27.33694
722.0000      	13850.4    	27.56416
723.0000      	13831.3    	27.72793
724.0000      	13812.2    	27.99353
725.0000      	13793.1    	28.22989
726.0000      	13774.1    	28.66123
727.0000      	13755.2    	28.87856
728.0000      	13736.3    	28.99237
729.0000      	13717.4    	29.23710
730.0000      	13698.6    	29.52946
731.0000      	13679.9    	30.00730
732.0000      	13661.2    	30.21961
733.0000      	13642.6    	30.73929
734.0000      	13624    	31.32608
735.0000      	13605.4    	31.93995
736.0000      	13587    	32.33528
737.0000      	13568.5    	32.62910
738.0000      	13550.1    	33.40450
739.0000      	13531.8    	34.13017
740.0000      	13513.5    	34.67400
741.0000      	13495.3    	35.37396
742.0000      	13477.1    	35.75387
743.0000      	13459    	36.75620
744.0000      	13440.9    	37.74247
745.0000      	13422.8    	38.81371
746.0000      	13404.8    	39.76045
747.0000      	13386.9    	40.30156
748.0000      	13369    	41.48595
749.0000      	13351.1    	42.66032
750.0000      	13333.3    	43.87263
751.0000      	13315.6    	44.45717
752.0000      	13297.9    	45.61595
753.0000      	13280.2    	46.98162
754.0000      	13262.6    	48.34116
755.0000      	13245    	49.84772
756.0000      	13227.5    	50.45585
757.0000      	13210    	51.69235
758.0000      	13192.6    	52.67023
759.0000      	13175.2    	54.00314
760.0000      	13157.9    	55.51237
761.0000      	13140.6    	56.22473
762.0000      	13123.4    	57.36214
763.0000      	13106.2    	58.35180
764.0000      	13089    	59.33191
765.0000      	13071.9    	59.74245
766.0000      	13054.8    	60.36113
767.0000      	13037.8    	60.88947
768.0000      	13020.8    	61.49226
769.0000      	13003.9    	62.18091
770.0000      	12987    	62.48101
771.0000      	12970.2    	63.06436
772.0000      	12953.4    	63.44430
773.0000      	12936.6    	63.58943
774.0000      	12919.9    	63.79361
775.0000      	12903.2    	63.96019
776.0000      	12886.6    	64.13766
777.0000      	12870    	64.39214
778.0000      	12853.5    	64.57249
779.0000      	12837    	64.91463
780.0000      	12820.5    	65.09267
781.0000      	12804.1    	65.25776
782.0000      	12787.7    	65.20252
783.0000      	12771.4    	65.20254
784.0000      	12755.1    	65.33813
785.0000      	12738.9    	65.65719
786.0000      	12722.6    	65.91166
787.0000      	12706.5    	65.53454
788.0000      	12690.4    	65.58333
789.0000      	12674.3    	65.48891
790.0000      	12658.2    	65.89825
791.0000      	12642.2    	65.97990
792.0000      	12626.3    	66.08376
793.0000      	12610.3    	66.04739
794.0000      	12594.5    	66.14925
795.0000      	12578.6    	66.19505
796.0000      	12562.8    	66.02884
797.0000      	12547.1    	66.13107
798.0000      	12531.3    	66.07023
799.0000      	12515.6    	66.03714
800.0000      	12500    	66.23166