File: data/Reflectance_measurements/Reflectance_2019_material/50/50_3.txt
Unit Serial No : 240-IM0P2424-EU
Integration Time : 10 ms
Time Average: 10
Binning Average: 2
FFT Smoothing: 0%
Project Name : RPS900-R
Sample Name :  SM240-IMOP2424-EU
Measurement No : 1
Measurement Time : 06/03/2019   14:43:50

Wavelength(nm)	Wavenumber(1/cm)	Transmittance(%)
300.0000      	33333.3    	13.25485
301.0000      	33222.6    	13.23814
302.0000      	33112.6    	12.68569
303.0000      	33003.3    	11.91708
304.0000      	32894.7    	12.64441
305.0000      	32786.9    	11.18273
306.0000      	32679.7    	11.50435
307.0000      	32573.3    	12.41472
308.0000      	32467.5    	12.83669
309.0000      	32362.5    	12.10378
310.0000      	32258.1    	11.07709
311.0000      	32154.3    	10.43661
312.0000      	32051.3    	9.66482
313.0000      	31948.9    	9.95412
314.0000      	31847.1    	9.73552
315.0000      	31746    	9.09410
316.0000      	31645.6    	8.77509
317.0000      	31545.7    	8.57413
318.0000      	31446.5    	9.35093
319.0000      	31348    	9.07339
320.0000      	31250    	8.87234
321.0000      	31152.6    	7.56241
322.0000      	31055.9    	7.61067
323.0000      	30959.8    	8.13649
324.0000      	30864.2    	8.13761
325.0000      	30769.2    	7.93424
326.0000      	30674.8    	7.89405
327.0000      	30581    	8.26786
328.0000      	30487.8    	7.82901
329.0000      	30395.1    	7.46823
330.0000      	30303    	7.26585
331.0000      	30211.5    	7.29245
332.0000      	30120.5    	7.63576
333.0000      	30030    	7.49286
334.0000      	29940.1    	7.90465
335.0000      	29850.7    	7.44337
336.0000      	29761.9    	7.20950
337.0000      	29673.6    	6.99858
338.0000      	29585.8    	7.32140
339.0000      	29498.5    	7.31010
340.0000      	29411.8    	7.39992
341.0000      	29325.5    	7.24483
342.0000      	29239.8    	7.24677
343.0000      	29154.5    	7.07176
344.0000      	29069.8    	7.21017
345.0000      	28985.5    	7.29202
346.0000      	28901.7    	7.29677
347.0000      	28818.4    	7.12742
348.0000      	28735.6    	7.04424
349.0000      	28653.3    	7.21508
350.0000      	28571.4    	7.54383
351.0000      	28490    	7.61672
352.0000      	28409.1    	7.45547
353.0000      	28328.6    	7.26104
354.0000      	28248.6    	7.44166
355.0000      	28169    	7.53244
356.0000      	28089.9    	7.88880
357.0000      	28011.2    	7.89725
358.0000      	27933    	7.91979
359.0000      	27855.2    	7.99616
360.0000      	27777.8    	7.91318
361.0000      	27700.8    	7.90569
362.0000      	27624.3    	8.02444
363.0000      	27548.2    	8.03648
364.0000      	27472.5    	7.90834
365.0000      	27397.3    	7.90562
366.0000      	27322.4    	8.22749
367.0000      	27248    	8.39974
368.0000      	27173.9    	8.46961
369.0000      	27100.3    	8.49172
370.0000      	27027    	8.57370
371.0000      	26954.2    	8.62550
372.0000      	26881.7    	8.77601
373.0000      	26809.7    	8.92147
374.0000      	26738    	8.99099
375.0000      	26666.7    	9.09663
376.0000      	26595.7    	9.40015
377.0000      	26525.2    	9.69464
378.0000      	26455    	9.93423
379.0000      	26385.2    	10.08876
380.0000      	26315.8    	10.23474
381.0000      	26246.7    	10.28667
382.0000      	26178    	10.44913
383.0000      	26109.7    	10.82004
384.0000      	26041.7    	11.03008
385.0000      	25974    	11.16048
386.0000      	25906.7    	11.26482
387.0000      	25839.8    	11.53914
388.0000      	25773.2    	11.89600
389.0000      	25706.9    	12.23409
390.0000      	25641    	12.57120
391.0000      	25575.4    	12.77238
392.0000      	25510.2    	12.90418
393.0000      	25445.3    	13.20162
394.0000      	25380.7    	13.46103
395.0000      	25316.5    	13.75524
396.0000      	25252.5    	14.06031
397.0000      	25188.9    	14.34436
398.0000      	25125.6    	14.67381
399.0000      	25062.7    	15.05640
400.0000      	25000    	15.49700
401.0000      	24937.7    	15.81997
402.0000      	24875.6    	15.96262
403.0000      	24813.9    	16.15783
404.0000      	24752.5    	16.52312
405.0000      	24691.4    	17.14443
406.0000      	24630.5    	17.60942
407.0000      	24570    	17.95268
408.0000      	24509.8    	18.25438
409.0000      	24449.9    	18.58564
410.0000      	24390.2    	19.08533
411.0000      	24330.9    	19.56646
412.0000      	24271.8    	19.75988
413.0000      	24213.1    	20.03572
414.0000      	24154.6    	20.35351
415.0000      	24096.4    	20.69676
416.0000      	24038.5    	20.91133
417.0000      	23980.8    	21.10258
418.0000      	23923.4    	21.18493
419.0000      	23866.3    	21.32253
420.0000      	23809.5    	21.30955
421.0000      	23753    	21.43781
422.0000      	23696.7    	21.64831
423.0000      	23640.7    	21.87347
424.0000      	23584.9    	22.05412
425.0000      	23529.4    	22.26650
426.0000      	23474.2    	22.57057
427.0000      	23419.2    	22.75789
428.0000      	23364.5    	22.79657
429.0000      	23310    	22.78780
430.0000      	23255.8    	22.83908
431.0000      	23201.9    	22.92788
432.0000      	23148.1    	23.14809
433.0000      	23094.7    	23.38689
434.0000      	23041.5    	23.60140
435.0000      	22988.5    	23.87715
436.0000      	22935.8    	24.09854
437.0000      	22883.3    	24.29942
438.0000      	22831.1    	24.31349
439.0000      	22779    	24.32584
440.0000      	22727.3    	24.37221
441.0000      	22675.7    	24.34192
442.0000      	22624.4    	24.43563
443.0000      	22573.4    	24.60654
444.0000      	22522.5    	24.80962
445.0000      	22471.9    	24.85364
446.0000      	22421.5    	24.83232
447.0000      	22371.4    	24.84960
448.0000      	22321.4    	24.83043
449.0000      	22271.7    	24.90939
450.0000      	22222.2    	24.94023
451.0000      	22172.9    	25.00047
452.0000      	22123.9    	25.20105
453.0000      	22075.1    	25.30847
454.0000      	22026.4    	25.38460
455.0000      	21978    	25.39587
456.0000      	21929.8    	25.53701
457.0000      	21881.8    	25.69168
458.0000      	21834.1    	25.74302
459.0000      	21786.5    	25.77985
460.0000      	21739.1    	25.97435
461.0000      	21692    	26.18615
462.0000      	21645    	26.27720
463.0000      	21598.3    	26.44567
464.0000      	21551.7    	26.57905
465.0000      	21505.4    	26.81669
466.0000      	21459.2    	27.05687
467.0000      	21413.3    	27.21924
468.0000      	21367.5    	27.36467
469.0000      	21322    	27.56962
470.0000      	21276.6    	27.68484
471.0000      	21231.4    	27.86255
472.0000      	21186.4    	28.09680
473.0000      	21141.6    	28.35391
474.0000      	21097    	28.63914
475.0000      	21052.6    	28.82669
476.0000      	21008.4    	29.00892
477.0000      	20964.4    	29.24162
478.0000      	20920.5    	29.40540
479.0000      	20876.8    	29.75337
480.0000      	20833.3    	30.01492
481.0000      	20790    	30.25365
482.0000      	20746.9    	30.53192
483.0000      	20703.9    	30.83643
484.0000      	20661.2    	31.18128
485.0000      	20618.6    	31.32317
486.0000      	20576.1    	31.55325
487.0000      	20533.9    	31.74902
488.0000      	20491.8    	32.02446
489.0000      	20449.9    	32.37466
490.0000      	20408.2    	32.62957
491.0000      	20366.6    	32.94960
492.0000      	20325.2    	33.12099
493.0000      	20284    	33.44327
494.0000      	20242.9    	33.66436
495.0000      	20202    	33.82413
496.0000      	20161.3    	34.02600
497.0000      	20120.7    	34.15399
498.0000      	20080.3    	34.29307
499.0000      	20040.1    	34.38699
500.0000      	20000    	34.57920
501.0000      	19960.1    	34.69199
502.0000      	19920.3    	34.73971
503.0000      	19880.7    	34.80072
504.0000      	19841.3    	34.84836
505.0000      	19802    	34.80501
506.0000      	19762.8    	34.75567
507.0000      	19723.9    	34.61821
508.0000      	19685    	34.40210
509.0000      	19646.4    	34.11470
510.0000      	19607.8    	33.83751
511.0000      	19569.5    	33.56775
512.0000      	19531.2    	33.13029
513.0000      	19493.2    	32.86738
514.0000      	19455.3    	32.35390
515.0000      	19417.5    	31.86168
516.0000      	19379.8    	31.30279
517.0000      	19342.4    	30.68301
518.0000      	19305    	30.07298
519.0000      	19267.8    	29.75484
520.0000      	19230.8    	29.12048
521.0000      	19193.9    	28.44642
522.0000      	19157.1    	27.86937
523.0000      	19120.5    	27.27061
524.0000      	19084    	26.67305
525.0000      	19047.6    	26.03893
526.0000      	19011.4    	25.77611
527.0000      	18975.3    	25.24745
528.0000      	18939.4    	24.77839
529.0000      	18903.6    	24.37345
530.0000      	18867.9    	24.02931
531.0000      	18832.4    	23.69470
532.0000      	18797    	23.39448
533.0000      	18761.7    	23.26556
534.0000      	18726.6    	23.01231
535.0000      	18691.6    	22.78082
536.0000      	18656.7    	22.58937
537.0000      	18622    	22.42840
538.0000      	18587.4    	22.34954
539.0000      	18552.9    	22.32166
540.0000      	18518.5    	22.31563
541.0000      	18484.3    	22.24703
542.0000      	18450.2    	22.19514
543.0000      	18416.2    	22.18992
544.0000      	18382.4    	22.19627
545.0000      	18348.6    	22.20082
546.0000      	18315    	22.22010
547.0000      	18281.5    	22.25816
548.0000      	18248.2    	22.19357
549.0000      	18214.9    	22.02411
550.0000      	18181.8    	21.87588
551.0000      	18148.8    	21.78618
552.0000      	18115.9    	21.55905
553.0000      	18083.2    	21.33384
554.0000      	18050.5    	21.06537
555.0000      	18018    	20.73579
556.0000      	17985.6    	20.40525
557.0000      	17953.3    	20.06425
558.0000      	17921.1    	19.92285
559.0000      	17889.1    	19.58086
560.0000      	17857.1    	19.23044
561.0000      	17825.3    	18.82506
562.0000      	17793.6    	18.47176
563.0000      	17762    	18.18666
564.0000      	17730.5    	18.06140
565.0000      	17699.1    	17.82193
566.0000      	17667.8    	17.59476
567.0000      	17636.7    	17.39126
568.0000      	17605.6    	17.24653
569.0000      	17574.7    	17.22451
570.0000      	17543.9    	17.23862
571.0000      	17513.1    	17.27617
572.0000      	17482.5    	17.39214
573.0000      	17452    	17.58224
574.0000      	17421.6    	17.79172
575.0000      	17391.3    	17.91148
576.0000      	17361.1    	18.19572
577.0000      	17331    	18.51355
578.0000      	17301    	18.86078
579.0000      	17271.2    	19.33096
580.0000      	17241.4    	19.85233
581.0000      	17211.7    	20.13235
582.0000      	17182.1    	20.67104
583.0000      	17152.7    	21.17100
584.0000      	17123.3    	21.68084
585.0000      	17094    	22.26687
586.0000      	17064.8    	22.83358
587.0000      	17035.8    	23.13813
588.0000      	17006.8    	23.66139
589.0000      	16977.9    	24.19383
590.0000      	16949.2    	24.61866
591.0000      	16920.5    	24.99257
592.0000      	16891.9    	25.28983
593.0000      	16863.4    	25.44967
594.0000      	16835    	25.79312
595.0000      	16806.7    	26.10150
596.0000      	16778.5    	26.24212
597.0000      	16750.4    	26.34958
598.0000      	16722.4    	26.46765
599.0000      	16694.5    	26.49814
600.0000      	16666.7    	26.57132
601.0000      	16638.9    	26.60484
602.0000      	16611.3    	26.58843
603.0000      	16583.7    	26.57091
604.0000      	16556.3    	26.55192
605.0000      	16528.9    	26.60550
606.0000      	16501.7    	26.62511
607.0000      	16474.5    	26.53677
608.0000      	16447.4    	26.44266
609.0000      	16420.4    	26.41023
610.0000      	16393.4    	26.45106
611.0000      	16366.6    	26.52331
612.0000      	16339.9    	26.56341
613.0000      	16313.2    	26.50686
614.0000      	16286.6    	26.44742
615.0000      	16260.2    	26.41181
616.0000      	16233.8    	26.38470
617.0000      	16207.5    	26.41431
618.0000      	16181.2    	26.42881
619.0000      	16155.1    	26.46938
620.0000      	16129    	26.49161
621.0000      	16103.1    	26.48159
622.0000      	16077.2    	26.43901
623.0000      	16051.4    	26.47543
624.0000      	16025.6    	26.55585
625.0000      	16000    	26.59625
626.0000      	15974.4    	26.63234
627.0000      	15949    	26.68226
628.0000      	15923.6    	26.72468
629.0000      	15898.3    	26.73731
630.0000      	15873    	26.65859
631.0000      	15847.9    	26.61924
632.0000      	15822.8    	26.67914
633.0000      	15797.8    	26.86444
634.0000      	15772.9    	26.99283
635.0000      	15748    	27.07635
636.0000      	15723.3    	27.10097
637.0000      	15698.6    	27.13538
638.0000      	15674    	27.20261
639.0000      	15649.5    	27.33521
640.0000      	15625    	27.51648
641.0000      	15600.6    	27.55905
642.0000      	15576.3    	27.57393
643.0000      	15552.1    	27.69772
644.0000      	15528    	27.95721
645.0000      	15503.9    	28.23738
646.0000      	15479.9    	28.49929
647.0000      	15456    	28.56756
648.0000      	15432.1    	28.71949
649.0000      	15408.3    	28.87251
650.0000      	15384.6    	29.09589
651.0000      	15361    	29.31727
652.0000      	15337.4    	29.55736
653.0000      	15313.9    	29.69092
654.0000      	15290.5    	29.90162
655.0000      	15267.2    	30.16085
656.0000      	15243.9    	30.44627
657.0000      	15220.7    	30.71869
658.0000      	15197.6    	30.86969
659.0000      	15174.5    	31.09138
660.0000      	15151.5    	31.29021
661.0000      	15128.6    	31.37507
662.0000      	15105.7    	31.57251
663.0000      	15083    	31.70903
664.0000      	15060.2    	31.95100
665.0000      	15037.6    	32.22748
666.0000      	15015    	32.40937
667.0000      	14992.5    	32.48104
668.0000      	14970.1    	32.47678
669.0000      	14947.7    	32.48528
670.0000      	14925.4    	32.58714
671.0000      	14903.1    	32.69705
672.0000      	14881    	32.70041
673.0000      	14858.8    	32.69296
674.0000      	14836.8    	32.60981
675.0000      	14814.8    	32.59686
676.0000      	14792.9    	32.50613
677.0000      	14771    	32.43010
678.0000      	14749.3    	32.35386
679.0000      	14727.5    	32.25509
680.0000      	14705.9    	32.16754
681.0000      	14684.3    	32.08073
682.0000      	14662.8    	31.97869
683.0000      	14641.3    	31.85344
684.0000      	14619.9    	31.74791
685.0000      	14598.5    	31.60977
686.0000      	14577.3    	31.47041
687.0000      	14556    	31.22800
688.0000      	14534.9    	31.19767
689.0000      	14513.8    	31.08052
690.0000      	14492.8    	30.97935
691.0000      	14471.8    	30.76603
692.0000      	14450.9    	30.63709
693.0000      	14430    	30.59286
694.0000      	14409.2    	30.60262
695.0000      	14388.5    	30.55345
696.0000      	14367.8    	30.43302
697.0000      	14347.2    	30.21645
698.0000      	14326.6    	30.13465
699.0000      	14306.2    	29.82874
700.0000      	14285.7    	29.71264
701.0000      	14265.3    	29.58922
702.0000      	14245    	29.38535
703.0000      	14224.8    	29.23637
704.0000      	14204.5    	28.98468
705.0000      	14184.4    	28.96443
706.0000      	14164.3    	28.80161
707.0000      	14144.3    	28.64738
708.0000      	14124.3    	28.56440
709.0000      	14104.4    	28.43694
710.0000      	14084.5    	28.35558
711.0000      	14064.7    	28.29292
712.0000      	14044.9    	28.15359
713.0000      	14025.2    	28.10873
714.0000      	14005.6    	28.08374
715.0000      	13986    	28.25416
716.0000      	13966.5    	28.32485
717.0000      	13947    	28.29346
718.0000      	13927.6    	28.31181
719.0000      	13908.2    	28.47289
720.0000      	13888.9    	28.66279
721.0000      	13869.6    	28.94398
722.0000      	13850.4    	29.32824
723.0000      	13831.3    	29.53796
724.0000      	13812.2    	29.91049
725.0000      	13793.1    	30.12332
726.0000      	13774.1    	30.33588
727.0000      	13755.2    	30.55724
728.0000      	13736.3    	30.72431
729.0000      	13717.4    	31.26461
730.0000      	13698.6    	31.71535
731.0000      	13679.9    	32.11892
732.0000      	13661.2    	32.32238
733.0000      	13642.6    	32.83965
734.0000      	13624    	33.40028
735.0000      	13605.4    	33.87493
736.0000      	13587    	34.23180
737.0000      	13568.5    	34.56562
738.0000      	13550.1    	35.34339
739.0000      	13531.8    	36.25538
740.0000      	13513.5    	37.14684
741.0000      	13495.3    	37.97007
742.0000      	13477.1    	38.30133
743.0000      	13459    	39.19101
744.0000      	13440.9    	40.22994
745.0000      	13422.8    	41.34314
746.0000      	13404.8    	42.33204
747.0000      	13386.9    	42.95645
748.0000      	13369    	44.25527
749.0000      	13351.1    	45.36865
750.0000      	13333.3    	46.64330
751.0000      	13315.6    	47.40947
752.0000      	13297.9    	48.86596
753.0000      	13280.2    	50.27047
754.0000      	13262.6    	51.59655
755.0000      	13245    	53.09622
756.0000      	13227.5    	53.86186
757.0000      	13210    	55.43926
758.0000      	13192.6    	56.95505
759.0000      	13175.2    	58.20226
760.0000      	13157.9    	59.39633
761.0000      	13140.6    	59.97486
762.0000      	13123.4    	61.28495
763.0000      	13106.2    	62.38538
764.0000      	13089    	63.54062
765.0000      	13071.9    	64.04976
766.0000      	13054.8    	64.83720
767.0000      	13037.8    	65.55688
768.0000      	13020.8    	66.29457
769.0000      	13003.9    	66.99503
770.0000      	12987    	67.26380
771.0000      	12970.2    	67.82169
772.0000      	12953.4    	68.25853
773.0000      	12936.6    	68.68273
774.0000      	12919.9    	68.89549
775.0000      	12903.2    	69.24671
776.0000      	12886.6    	69.50501
777.0000      	12870    	69.74747
778.0000      	12853.5    	69.90060
779.0000      	12837    	70.16798
780.0000      	12820.5    	70.59847
781.0000      	12804.1    	70.88205
782.0000      	12787.7    	70.80814
783.0000      	12771.4    	70.99709
784.0000      	12755.1    	71.07688
785.0000      	12738.9    	71.36416
786.0000      	12722.6    	71.32415
787.0000      	12706.5    	71.11490
788.0000      	12690.4    	71.37604
789.0000      	12674.3    	71.46103
790.0000      	12658.2    	71.57613
791.0000      	12642.2    	71.07092
792.0000      	12626.3    	70.89910
793.0000      	12610.3    	70.99908
794.0000      	12594.5    	71.34315
795.0000      	12578.6    	71.66163
796.0000      	12562.8    	71.46661
797.0000      	12547.1    	71.47365
798.0000      	12531.3    	71.40940
799.0000      	12515.6    	71.34262
800.0000      	12500    	71.46337