File: data/Reflectance_measurements/Reflectance_2019_material/63/63_1.txt
Unit Serial No : 240-IM0P2424-EU
Integration Time : 10 ms
Time Average: 10
Binning Average: 2
FFT Smoothing: 0%
Project Name : RPS900-R
Sample Name :  SM240-IMOP2424-EU
Measurement No : 1
Measurement Time : 06/03/2019   14:58:43

Wavelength(nm)	Wavenumber(1/cm)	Transmittance(%)
300.0000      	33333.3    	10.71153
301.0000      	33222.6    	9.93167
302.0000      	33112.6    	10.15287
303.0000      	33003.3    	9.78678
304.0000      	32894.7    	7.78636
305.0000      	32786.9    	7.27349
306.0000      	32679.7    	7.76885
307.0000      	32573.3    	8.16598
308.0000      	32467.5    	8.94455
309.0000      	32362.5    	8.50089
310.0000      	32258.1    	8.59938
311.0000      	32154.3    	8.43201
312.0000      	32051.3    	7.95222
313.0000      	31948.9    	7.95931
314.0000      	31847.1    	7.45748
315.0000      	31746    	7.35743
316.0000      	31645.6    	7.55029
317.0000      	31545.7    	7.74763
318.0000      	31446.5    	7.97545
319.0000      	31348    	7.60951
320.0000      	31250    	7.30727
321.0000      	31152.6    	6.68144
322.0000      	31055.9    	6.99327
323.0000      	30959.8    	6.90710
324.0000      	30864.2    	6.48241
325.0000      	30769.2    	6.04402
326.0000      	30674.8    	6.65736
327.0000      	30581    	7.67605
328.0000      	30487.8    	7.44560
329.0000      	30395.1    	6.92609
330.0000      	30303    	6.11911
331.0000      	30211.5    	5.75358
332.0000      	30120.5    	6.12272
333.0000      	30030    	6.29836
334.0000      	29940.1    	6.15853
335.0000      	29850.7    	5.90721
336.0000      	29761.9    	5.67373
337.0000      	29673.6    	5.36911
338.0000      	29585.8    	5.65837
339.0000      	29498.5    	5.78357
340.0000      	29411.8    	5.89291
341.0000      	29325.5    	5.82103
342.0000      	29239.8    	5.91765
343.0000      	29154.5    	5.79937
344.0000      	29069.8    	5.75387
345.0000      	28985.5    	5.88339
346.0000      	28901.7    	5.61362
347.0000      	28818.4    	5.38973
348.0000      	28735.6    	5.43556
349.0000      	28653.3    	5.50624
350.0000      	28571.4    	5.48252
351.0000      	28490    	5.55042
352.0000      	28409.1    	5.63055
353.0000      	28328.6    	5.81373
354.0000      	28248.6    	5.98322
355.0000      	28169    	5.83822
356.0000      	28089.9    	5.92090
357.0000      	28011.2    	5.76338
358.0000      	27933    	5.74047
359.0000      	27855.2    	5.88524
360.0000      	27777.8    	6.08745
361.0000      	27700.8    	6.48928
362.0000      	27624.3    	6.41244
363.0000      	27548.2    	6.37227
364.0000      	27472.5    	6.17316
365.0000      	27397.3    	6.19260
366.0000      	27322.4    	6.24392
367.0000      	27248    	6.28251
368.0000      	27173.9    	6.27784
369.0000      	27100.3    	6.40402
370.0000      	27027    	6.40734
371.0000      	26954.2    	6.41345
372.0000      	26881.7    	6.54474
373.0000      	26809.7    	6.65535
374.0000      	26738    	6.78073
375.0000      	26666.7    	6.72268
376.0000      	26595.7    	6.91217
377.0000      	26525.2    	6.97356
378.0000      	26455    	7.18133
379.0000      	26385.2    	7.30416
380.0000      	26315.8    	7.38521
381.0000      	26246.7    	7.33839
382.0000      	26178    	7.35340
383.0000      	26109.7    	7.50378
384.0000      	26041.7    	7.60031
385.0000      	25974    	7.78958
386.0000      	25906.7    	7.91603
387.0000      	25839.8    	8.13855
388.0000      	25773.2    	8.24653
389.0000      	25706.9    	8.54470
390.0000      	25641    	8.69403
391.0000      	25575.4    	8.65430
392.0000      	25510.2    	8.76743
393.0000      	25445.3    	8.92985
394.0000      	25380.7    	9.16964
395.0000      	25316.5    	9.22711
396.0000      	25252.5    	9.38909
397.0000      	25188.9    	9.53879
398.0000      	25125.6    	9.82926
399.0000      	25062.7    	9.95194
400.0000      	25000    	10.07954
401.0000      	24937.7    	10.20998
402.0000      	24875.6    	10.33058
403.0000      	24813.9    	10.57524
404.0000      	24752.5    	10.76142
405.0000      	24691.4    	10.85714
406.0000      	24630.5    	10.93123
407.0000      	24570    	11.17029
408.0000      	24509.8    	11.40017
409.0000      	24449.9    	11.59447
410.0000      	24390.2    	11.90639
411.0000      	24330.9    	12.09169
412.0000      	24271.8    	12.21919
413.0000      	24213.1    	12.37884
414.0000      	24154.6    	12.55781
415.0000      	24096.4    	12.68782
416.0000      	24038.5    	12.70637
417.0000      	23980.8    	12.79279
418.0000      	23923.4    	12.76513
419.0000      	23866.3    	12.86733
420.0000      	23809.5    	12.85250
421.0000      	23753    	12.91966
422.0000      	23696.7    	13.03631
423.0000      	23640.7    	13.19482
424.0000      	23584.9    	13.41661
425.0000      	23529.4    	13.45807
426.0000      	23474.2    	13.61398
427.0000      	23419.2    	13.60683
428.0000      	23364.5    	13.73694
429.0000      	23310    	13.74499
430.0000      	23255.8    	13.81958
431.0000      	23201.9    	13.77190
432.0000      	23148.1    	13.97453
433.0000      	23094.7    	14.09904
434.0000      	23041.5    	14.17479
435.0000      	22988.5    	14.26815
436.0000      	22935.8    	14.37251
437.0000      	22883.3    	14.55194
438.0000      	22831.1    	14.57915
439.0000      	22779    	14.68720
440.0000      	22727.3    	14.77990
441.0000      	22675.7    	14.75539
442.0000      	22624.4    	14.74254
443.0000      	22573.4    	14.87186
444.0000      	22522.5    	15.05803
445.0000      	22471.9    	15.11868
446.0000      	22421.5    	15.09944
447.0000      	22371.4    	15.10290
448.0000      	22321.4    	15.04766
449.0000      	22271.7    	15.08085
450.0000      	22222.2    	15.13825
451.0000      	22172.9    	15.17653
452.0000      	22123.9    	15.28729
453.0000      	22075.1    	15.37746
454.0000      	22026.4    	15.42606
455.0000      	21978    	15.48707
456.0000      	21929.8    	15.61892
457.0000      	21881.8    	15.81714
458.0000      	21834.1    	15.81851
459.0000      	21786.5    	15.91471
460.0000      	21739.1    	16.04490
461.0000      	21692    	16.14939
462.0000      	21645    	16.18554
463.0000      	21598.3    	16.29141
464.0000      	21551.7    	16.45358
465.0000      	21505.4    	16.59539
466.0000      	21459.2    	16.71208
467.0000      	21413.3    	16.86271
468.0000      	21367.5    	17.04540
469.0000      	21322    	17.19205
470.0000      	21276.6    	17.27405
471.0000      	21231.4    	17.36520
472.0000      	21186.4    	17.52152
473.0000      	21141.6    	17.72463
474.0000      	21097    	17.94722
475.0000      	21052.6    	18.11090
476.0000      	21008.4    	18.35855
477.0000      	20964.4    	18.52974
478.0000      	20920.5    	18.61595
479.0000      	20876.8    	18.81492
480.0000      	20833.3    	19.07378
481.0000      	20790    	19.29014
482.0000      	20746.9    	19.46091
483.0000      	20703.9    	19.64058
484.0000      	20661.2    	19.88933
485.0000      	20618.6    	20.00679
486.0000      	20576.1    	20.21456
487.0000      	20533.9    	20.37991
488.0000      	20491.8    	20.63585
489.0000      	20449.9    	20.91027
490.0000      	20408.2    	21.11988
491.0000      	20366.6    	21.29686
492.0000      	20325.2    	21.40570
493.0000      	20284    	21.61619
494.0000      	20242.9    	21.82757
495.0000      	20202    	22.01101
496.0000      	20161.3    	22.19627
497.0000      	20120.7    	22.31007
498.0000      	20080.3    	22.43430
499.0000      	20040.1    	22.51050
500.0000      	20000    	22.62883
501.0000      	19960.1    	22.75428
502.0000      	19920.3    	22.82158
503.0000      	19880.7    	22.86535
504.0000      	19841.3    	22.88634
505.0000      	19802    	22.85004
506.0000      	19762.8    	22.79996
507.0000      	19723.9    	22.68386
508.0000      	19685    	22.56635
509.0000      	19646.4    	22.39539
510.0000      	19607.8    	22.17772
511.0000      	19569.5    	21.97372
512.0000      	19531.2    	21.67576
513.0000      	19493.2    	21.50570
514.0000      	19455.3    	21.14194
515.0000      	19417.5    	20.75172
516.0000      	19379.8    	20.33593
517.0000      	19342.4    	19.93327
518.0000      	19305    	19.52133
519.0000      	19267.8    	19.32312
520.0000      	19230.8    	18.89105
521.0000      	19193.9    	18.40001
522.0000      	19157.1    	17.90922
523.0000      	19120.5    	17.47117
524.0000      	19084    	17.09501
525.0000      	19047.6    	16.65753
526.0000      	19011.4    	16.46105
527.0000      	18975.3    	16.13917
528.0000      	18939.4    	15.82465
529.0000      	18903.6    	15.53326
530.0000      	18867.9    	15.25624
531.0000      	18832.4    	15.06226
532.0000      	18797    	14.82280
533.0000      	18761.7    	14.71673
534.0000      	18726.6    	14.51604
535.0000      	18691.6    	14.35326
536.0000      	18656.7    	14.21176
537.0000      	18622    	14.14320
538.0000      	18587.4    	14.13633
539.0000      	18552.9    	14.11178
540.0000      	18518.5    	14.08562
541.0000      	18484.3    	14.02868
542.0000      	18450.2    	14.00434
543.0000      	18416.2    	14.02783
544.0000      	18382.4    	13.99054
545.0000      	18348.6    	13.98933
546.0000      	18315    	13.97058
547.0000      	18281.5    	14.01812
548.0000      	18248.2    	13.95806
549.0000      	18214.9    	13.84922
550.0000      	18181.8    	13.76440
551.0000      	18148.8    	13.71474
552.0000      	18115.9    	13.56040
553.0000      	18083.2    	13.41761
554.0000      	18050.5    	13.23974
555.0000      	18018    	12.97230
556.0000      	17985.6    	12.71016
557.0000      	17953.3    	12.48114
558.0000      	17921.1    	12.39180
559.0000      	17889.1    	12.20541
560.0000      	17857.1    	11.96793
561.0000      	17825.3    	11.69848
562.0000      	17793.6    	11.44606
563.0000      	17762    	11.28530
564.0000      	17730.5    	11.18864
565.0000      	17699.1    	11.02207
566.0000      	17667.8    	10.90596
567.0000      	17636.7    	10.84267
568.0000      	17605.6    	10.76274
569.0000      	17574.7    	10.73089
570.0000      	17543.9    	10.72590
571.0000      	17513.1    	10.70564
572.0000      	17482.5    	10.76953
573.0000      	17452    	10.86791
574.0000      	17421.6    	11.03331
575.0000      	17391.3    	11.11944
576.0000      	17361.1    	11.28589
577.0000      	17331    	11.44703
578.0000      	17301    	11.70755
579.0000      	17271.2    	12.04226
580.0000      	17241.4    	12.35787
581.0000      	17211.7    	12.53591
582.0000      	17182.1    	12.91764
583.0000      	17152.7    	13.23309
584.0000      	17123.3    	13.55188
585.0000      	17094    	13.95744
586.0000      	17064.8    	14.42971
587.0000      	17035.8    	14.65781
588.0000      	17006.8    	15.00782
589.0000      	16977.9    	15.35328
590.0000      	16949.2    	15.64812
591.0000      	16920.5    	15.95168
592.0000      	16891.9    	16.19976
593.0000      	16863.4    	16.35213
594.0000      	16835    	16.57632
595.0000      	16806.7    	16.79796
596.0000      	16778.5    	16.90012
597.0000      	16750.4    	17.03096
598.0000      	16722.4    	17.15461
599.0000      	16694.5    	17.19358
600.0000      	16666.7    	17.24091
601.0000      	16638.9    	17.19747
602.0000      	16611.3    	17.25577
603.0000      	16583.7    	17.21295
604.0000      	16556.3    	17.17274
605.0000      	16528.9    	17.10140
606.0000      	16501.7    	17.20636
607.0000      	16474.5    	17.25096
608.0000      	16447.4    	17.19822
609.0000      	16420.4    	17.15530
610.0000      	16393.4    	17.12722
611.0000      	16366.6    	17.17101
612.0000      	16339.9    	17.22062
613.0000      	16313.2    	17.22953
614.0000      	16286.6    	17.19097
615.0000      	16260.2    	17.20028
616.0000      	16233.8    	17.23792
617.0000      	16207.5    	17.23504
618.0000      	16181.2    	17.20662
619.0000      	16155.1    	17.26036
620.0000      	16129    	17.31424
621.0000      	16103.1    	17.30449
622.0000      	16077.2    	17.28388
623.0000      	16051.4    	17.28449
624.0000      	16025.6    	17.31130
625.0000      	16000    	17.30516
626.0000      	15974.4    	17.30376
627.0000      	15949    	17.36678
628.0000      	15923.6    	17.46700
629.0000      	15898.3    	17.56911
630.0000      	15873    	17.50690
631.0000      	15847.9    	17.52661
632.0000      	15822.8    	17.54244
633.0000      	15797.8    	17.61984
634.0000      	15772.9    	17.66857
635.0000      	15748    	17.75060
636.0000      	15723.3    	17.73263
637.0000      	15698.6    	17.75821
638.0000      	15674    	17.78938
639.0000      	15649.5    	17.86150
640.0000      	15625    	17.98292
641.0000      	15600.6    	18.07702
642.0000      	15576.3    	18.14287
643.0000      	15552.1    	18.22511
644.0000      	15528    	18.25666
645.0000      	15503.9    	18.36980
646.0000      	15479.9    	18.53856
647.0000      	15456    	18.62374
648.0000      	15432.1    	18.78122
649.0000      	15408.3    	18.90982
650.0000      	15384.6    	19.07383
651.0000      	15361    	19.15985
652.0000      	15337.4    	19.34559
653.0000      	15313.9    	19.41320
654.0000      	15290.5    	19.57803
655.0000      	15267.2    	19.78776
656.0000      	15243.9    	19.98757
657.0000      	15220.7    	20.16501
658.0000      	15197.6    	20.25231
659.0000      	15174.5    	20.45587
660.0000      	15151.5    	20.62745
661.0000      	15128.6    	20.71225
662.0000      	15105.7    	20.99120
663.0000      	15083    	21.11408
664.0000      	15060.2    	21.26001
665.0000      	15037.6    	21.21073
666.0000      	15015    	21.30020
667.0000      	14992.5    	21.48725
668.0000      	14970.1    	21.58634
669.0000      	14947.7    	21.61902
670.0000      	14925.4    	21.54146
671.0000      	14903.1    	21.53797
672.0000      	14881    	21.59511
673.0000      	14858.8    	21.62307
674.0000      	14836.8    	21.60513
675.0000      	14814.8    	21.52350
676.0000      	14792.9    	21.42279
677.0000      	14771    	21.36451
678.0000      	14749.3    	21.30437
679.0000      	14727.5    	21.22090
680.0000      	14705.9    	21.22363
681.0000      	14684.3    	21.30218
682.0000      	14662.8    	21.28135
683.0000      	14641.3    	21.20174
684.0000      	14619.9    	21.05637
685.0000      	14598.5    	20.92169
686.0000      	14577.3    	20.85167
687.0000      	14556    	20.72312
688.0000      	14534.9    	20.65799
689.0000      	14513.8    	20.49740
690.0000      	14492.8    	20.44567
691.0000      	14471.8    	20.40341
692.0000      	14450.9    	20.34420
693.0000      	14430    	20.34042
694.0000      	14409.2    	20.26383
695.0000      	14388.5    	20.18876
696.0000      	14367.8    	20.06333
697.0000      	14347.2    	19.89074
698.0000      	14326.6    	19.79321
699.0000      	14306.2    	19.63096
700.0000      	14285.7    	19.49477
701.0000      	14265.3    	19.33314
702.0000      	14245    	19.28822
703.0000      	14224.8    	19.23138
704.0000      	14204.5    	19.14480
705.0000      	14184.4    	18.98082
706.0000      	14164.3    	18.82614
707.0000      	14144.3    	18.65381
708.0000      	14124.3    	18.61835
709.0000      	14104.4    	18.43049
710.0000      	14084.5    	18.37827
711.0000      	14064.7    	18.35344
712.0000      	14044.9    	18.34741
713.0000      	14025.2    	18.28818
714.0000      	14005.6    	18.22268
715.0000      	13986    	18.25621
716.0000      	13966.5    	18.43544
717.0000      	13947    	18.55885
718.0000      	13927.6    	18.65829
719.0000      	13908.2    	18.82740
720.0000      	13888.9    	18.95224
721.0000      	13869.6    	19.02831
722.0000      	13850.4    	19.25527
723.0000      	13831.3    	19.35244
724.0000      	13812.2    	19.53032
725.0000      	13793.1    	19.66175
726.0000      	13774.1    	19.98826
727.0000      	13755.2    	20.08980
728.0000      	13736.3    	20.15425
729.0000      	13717.4    	20.44127
730.0000      	13698.6    	20.80539
731.0000      	13679.9    	21.10540
732.0000      	13661.2    	21.27224
733.0000      	13642.6    	21.60959
734.0000      	13624    	22.04382
735.0000      	13605.4    	22.51037
736.0000      	13587    	22.99175
737.0000      	13568.5    	23.28544
738.0000      	13550.1    	23.90688
739.0000      	13531.8    	24.37139
740.0000      	13513.5    	24.89591
741.0000      	13495.3    	25.49352
742.0000      	13477.1    	25.80727
743.0000      	13459    	26.61016
744.0000      	13440.9    	27.43449
745.0000      	13422.8    	28.46579
746.0000      	13404.8    	29.26381
747.0000      	13386.9    	29.70129
748.0000      	13369    	30.34569
749.0000      	13351.1    	31.11919
750.0000      	13333.3    	32.32415
751.0000      	13315.6    	32.98533
752.0000      	13297.9    	34.16429
753.0000      	13280.2    	35.42894
754.0000      	13262.6    	36.69617
755.0000      	13245    	37.94611
756.0000      	13227.5    	38.56902
757.0000      	13210    	39.78951
758.0000      	13192.6    	40.88213
759.0000      	13175.2    	41.99928
760.0000      	13157.9    	43.18602
761.0000      	13140.6    	43.78544
762.0000      	13123.4    	44.97021
763.0000      	13106.2    	46.05312
764.0000      	13089    	47.09304
765.0000      	13071.9    	47.58276
766.0000      	13054.8    	48.45633
767.0000      	13037.8    	49.18255
768.0000      	13020.8    	49.78254
769.0000      	13003.9    	50.40813
770.0000      	12987    	50.77785
771.0000      	12970.2    	51.38005
772.0000      	12953.4    	51.81312
773.0000      	12936.6    	52.10221
774.0000      	12919.9    	52.37470
775.0000      	12903.2    	52.69387
776.0000      	12886.6    	52.97973
777.0000      	12870    	53.26167
778.0000      	12853.5    	53.51505
779.0000      	12837    	53.78255
780.0000      	12820.5    	53.73049
781.0000      	12804.1    	53.92182
782.0000      	12787.7    	54.44801
783.0000      	12771.4    	54.94537
784.0000      	12755.1    	54.93015
785.0000      	12738.9    	54.87710
786.0000      	12722.6    	54.80180
787.0000      	12706.5    	54.68098
788.0000      	12690.4    	54.96400
789.0000      	12674.3    	54.90876
790.0000      	12658.2    	55.16200
791.0000      	12642.2    	54.89375
792.0000      	12626.3    	54.78265
793.0000      	12610.3    	54.76830
794.0000      	12594.5    	54.93244
795.0000      	12578.6    	55.34781
796.0000      	12562.8    	55.46360
797.0000      	12547.1    	55.62635
798.0000      	12531.3    	55.35431
799.0000      	12515.6    	55.34534
800.0000      	12500    	55.65682