File: data/Reflectance_measurements/Reflectance_2019_material/63/63_2.txt
Unit Serial No : 240-IM0P2424-EU
Integration Time : 10 ms
Time Average: 10
Binning Average: 2
FFT Smoothing: 0%
Project Name : RPS900-R
Sample Name :  SM240-IMOP2424-EU
Measurement No : 1
Measurement Time : 06/03/2019   14:58:56

Wavelength(nm)	Wavenumber(1/cm)	Transmittance(%)
300.0000      	33333.3    	11.67868
301.0000      	33222.6    	12.04691
302.0000      	33112.6    	12.15319
303.0000      	33003.3    	10.94546
304.0000      	32894.7    	9.63592
305.0000      	32786.9    	9.32069
306.0000      	32679.7    	9.58751
307.0000      	32573.3    	9.64415
308.0000      	32467.5    	9.26838
309.0000      	32362.5    	8.41514
310.0000      	32258.1    	8.45271
311.0000      	32154.3    	8.60773
312.0000      	32051.3    	8.44448
313.0000      	31948.9    	8.60014
314.0000      	31847.1    	7.59063
315.0000      	31746    	7.49552
316.0000      	31645.6    	7.45911
317.0000      	31545.7    	7.88931
318.0000      	31446.5    	8.15514
319.0000      	31348    	7.55676
320.0000      	31250    	6.81579
321.0000      	31152.6    	6.06115
322.0000      	31055.9    	7.02615
323.0000      	30959.8    	7.53190
324.0000      	30864.2    	7.06831
325.0000      	30769.2    	6.05650
326.0000      	30674.8    	6.55998
327.0000      	30581    	6.99171
328.0000      	30487.8    	6.81405
329.0000      	30395.1    	7.07618
330.0000      	30303    	7.21514
331.0000      	30211.5    	6.48941
332.0000      	30120.5    	6.24442
333.0000      	30030    	6.22814
334.0000      	29940.1    	6.46238
335.0000      	29850.7    	6.24915
336.0000      	29761.9    	6.00844
337.0000      	29673.6    	5.88239
338.0000      	29585.8    	6.09077
339.0000      	29498.5    	6.16680
340.0000      	29411.8    	6.25064
341.0000      	29325.5    	6.07431
342.0000      	29239.8    	6.19604
343.0000      	29154.5    	6.25599
344.0000      	29069.8    	6.15142
345.0000      	28985.5    	5.98868
346.0000      	28901.7    	5.76413
347.0000      	28818.4    	5.66758
348.0000      	28735.6    	5.73770
349.0000      	28653.3    	5.86307
350.0000      	28571.4    	6.12365
351.0000      	28490    	6.17533
352.0000      	28409.1    	6.00672
353.0000      	28328.6    	5.91123
354.0000      	28248.6    	5.95619
355.0000      	28169    	5.95722
356.0000      	28089.9    	6.46240
357.0000      	28011.2    	6.63185
358.0000      	27933    	6.42162
359.0000      	27855.2    	6.47471
360.0000      	27777.8    	6.49458
361.0000      	27700.8    	6.67655
362.0000      	27624.3    	6.56869
363.0000      	27548.2    	6.37227
364.0000      	27472.5    	6.19860
365.0000      	27397.3    	6.33283
366.0000      	27322.4    	6.69537
367.0000      	27248    	6.92991
368.0000      	27173.9    	6.91713
369.0000      	27100.3    	6.80442
370.0000      	27027    	6.76557
371.0000      	26954.2    	6.80211
372.0000      	26881.7    	6.99654
373.0000      	26809.7    	7.05405
374.0000      	26738    	7.03955
375.0000      	26666.7    	7.16318
376.0000      	26595.7    	7.41310
377.0000      	26525.2    	7.49290
378.0000      	26455    	7.52163
379.0000      	26385.2    	7.59485
380.0000      	26315.8    	7.64212
381.0000      	26246.7    	7.64140
382.0000      	26178    	7.78181
383.0000      	26109.7    	8.19276
384.0000      	26041.7    	8.39688
385.0000      	25974    	8.38562
386.0000      	25906.7    	8.40654
387.0000      	25839.8    	8.63627
388.0000      	25773.2    	8.73255
389.0000      	25706.9    	9.04668
390.0000      	25641    	9.26893
391.0000      	25575.4    	9.34548
392.0000      	25510.2    	9.41196
393.0000      	25445.3    	9.67689
394.0000      	25380.7    	9.90989
395.0000      	25316.5    	10.07002
396.0000      	25252.5    	10.24028
397.0000      	25188.9    	10.40943
398.0000      	25125.6    	10.57985
399.0000      	25062.7    	10.69553
400.0000      	25000    	10.92754
401.0000      	24937.7    	11.15357
402.0000      	24875.6    	11.27726
403.0000      	24813.9    	11.45032
404.0000      	24752.5    	11.67878
405.0000      	24691.4    	11.94393
406.0000      	24630.5    	12.07853
407.0000      	24570    	12.28053
408.0000      	24509.8    	12.47451
409.0000      	24449.9    	12.73993
410.0000      	24390.2    	13.10172
411.0000      	24330.9    	13.35632
412.0000      	24271.8    	13.46951
413.0000      	24213.1    	13.62103
414.0000      	24154.6    	13.84061
415.0000      	24096.4    	13.97213
416.0000      	24038.5    	14.08038
417.0000      	23980.8    	14.18461
418.0000      	23923.4    	14.17386
419.0000      	23866.3    	14.16682
420.0000      	23809.5    	14.20128
421.0000      	23753    	14.29674
422.0000      	23696.7    	14.48403
423.0000      	23640.7    	14.59650
424.0000      	23584.9    	14.74239
425.0000      	23529.4    	14.78893
426.0000      	23474.2    	15.01631
427.0000      	23419.2    	15.11174
428.0000      	23364.5    	15.11303
429.0000      	23310    	15.07955
430.0000      	23255.8    	15.09822
431.0000      	23201.9    	15.23980
432.0000      	23148.1    	15.44364
433.0000      	23094.7    	15.64456
434.0000      	23041.5    	15.78486
435.0000      	22988.5    	15.88239
436.0000      	22935.8    	15.90418
437.0000      	22883.3    	16.03197
438.0000      	22831.1    	16.06412
439.0000      	22779    	16.17234
440.0000      	22727.3    	16.29444
441.0000      	22675.7    	16.31450
442.0000      	22624.4    	16.25545
443.0000      	22573.4    	16.41070
444.0000      	22522.5    	16.64897
445.0000      	22471.9    	16.69202
446.0000      	22421.5    	16.61929
447.0000      	22371.4    	16.59204
448.0000      	22321.4    	16.53427
449.0000      	22271.7    	16.59931
450.0000      	22222.2    	16.63396
451.0000      	22172.9    	16.72293
452.0000      	22123.9    	16.86589
453.0000      	22075.1    	16.98490
454.0000      	22026.4    	17.05238
455.0000      	21978    	17.10782
456.0000      	21929.8    	17.24468
457.0000      	21881.8    	17.32136
458.0000      	21834.1    	17.35942
459.0000      	21786.5    	17.49773
460.0000      	21739.1    	17.68072
461.0000      	21692    	17.83084
462.0000      	21645    	17.88172
463.0000      	21598.3    	17.91799
464.0000      	21551.7    	18.03400
465.0000      	21505.4    	18.25462
466.0000      	21459.2    	18.44753
467.0000      	21413.3    	18.54474
468.0000      	21367.5    	18.72223
469.0000      	21322    	18.85831
470.0000      	21276.6    	18.96874
471.0000      	21231.4    	19.12292
472.0000      	21186.4    	19.39353
473.0000      	21141.6    	19.60188
474.0000      	21097    	19.80347
475.0000      	21052.6    	19.93377
476.0000      	21008.4    	20.10918
477.0000      	20964.4    	20.29927
478.0000      	20920.5    	20.44827
479.0000      	20876.8    	20.69037
480.0000      	20833.3    	20.92869
481.0000      	20790    	21.11148
482.0000      	20746.9    	21.33007
483.0000      	20703.9    	21.58036
484.0000      	20661.2    	21.88295
485.0000      	20618.6    	22.01270
486.0000      	20576.1    	22.23438
487.0000      	20533.9    	22.40925
488.0000      	20491.8    	22.63736
489.0000      	20449.9    	22.91946
490.0000      	20408.2    	23.19142
491.0000      	20366.6    	23.43469
492.0000      	20325.2    	23.57532
493.0000      	20284    	23.77525
494.0000      	20242.9    	23.96445
495.0000      	20202    	24.12856
496.0000      	20161.3    	24.35330
497.0000      	20120.7    	24.50326
498.0000      	20080.3    	24.67420
499.0000      	20040.1    	24.76897
500.0000      	20000    	24.89422
501.0000      	19960.1    	24.98737
502.0000      	19920.3    	25.05327
503.0000      	19880.7    	25.10420
504.0000      	19841.3    	25.11455
505.0000      	19802    	25.03114
506.0000      	19762.8    	24.99479
507.0000      	19723.9    	24.90353
508.0000      	19685    	24.73432
509.0000      	19646.4    	24.51865
510.0000      	19607.8    	24.24699
511.0000      	19569.5    	23.99454
512.0000      	19531.2    	23.67774
513.0000      	19493.2    	23.49556
514.0000      	19455.3    	23.12281
515.0000      	19417.5    	22.74298
516.0000      	19379.8    	22.27842
517.0000      	19342.4    	21.72487
518.0000      	19305    	21.21795
519.0000      	19267.8    	20.99534
520.0000      	19230.8    	20.56443
521.0000      	19193.9    	20.06143
522.0000      	19157.1    	19.54495
523.0000      	19120.5    	19.08885
524.0000      	19084    	18.64132
525.0000      	19047.6    	18.14750
526.0000      	19011.4    	17.93073
527.0000      	18975.3    	17.55674
528.0000      	18939.4    	17.18281
529.0000      	18903.6    	16.85010
530.0000      	18867.9    	16.60324
531.0000      	18832.4    	16.32639
532.0000      	18797    	16.05701
533.0000      	18761.7    	15.93028
534.0000      	18726.6    	15.77022
535.0000      	18691.6    	15.63839
536.0000      	18656.7    	15.52365
537.0000      	18622    	15.41244
538.0000      	18587.4    	15.31963
539.0000      	18552.9    	15.26173
540.0000      	18518.5    	15.17740
541.0000      	18484.3    	15.15607
542.0000      	18450.2    	15.15778
543.0000      	18416.2    	15.17735
544.0000      	18382.4    	15.12282
545.0000      	18348.6    	15.08762
546.0000      	18315    	15.03489
547.0000      	18281.5    	15.05904
548.0000      	18248.2    	15.09613
549.0000      	18214.9    	15.02098
550.0000      	18181.8    	14.88942
551.0000      	18148.8    	14.77970
552.0000      	18115.9    	14.54356
553.0000      	18083.2    	14.35913
554.0000      	18050.5    	14.16475
555.0000      	18018    	13.90936
556.0000      	17985.6    	13.64874
557.0000      	17953.3    	13.40845
558.0000      	17921.1    	13.28637
559.0000      	17889.1    	13.04018
560.0000      	17857.1    	12.77425
561.0000      	17825.3    	12.50852
562.0000      	17793.6    	12.27769
563.0000      	17762    	12.09182
564.0000      	17730.5    	12.00676
565.0000      	17699.1    	11.87368
566.0000      	17667.8    	11.73994
567.0000      	17636.7    	11.59121
568.0000      	17605.6    	11.48741
569.0000      	17574.7    	11.50003
570.0000      	17543.9    	11.52727
571.0000      	17513.1    	11.52962
572.0000      	17482.5    	11.54482
573.0000      	17452    	11.58955
574.0000      	17421.6    	11.71809
575.0000      	17391.3    	11.82640
576.0000      	17361.1    	12.06530
577.0000      	17331    	12.32537
578.0000      	17301    	12.61075
579.0000      	17271.2    	12.95054
580.0000      	17241.4    	13.28056
581.0000      	17211.7    	13.47315
582.0000      	17182.1    	13.93801
583.0000      	17152.7    	14.31781
584.0000      	17123.3    	14.71727
585.0000      	17094    	15.14274
586.0000      	17064.8    	15.61232
587.0000      	17035.8    	15.84382
588.0000      	17006.8    	16.24398
589.0000      	16977.9    	16.58575
590.0000      	16949.2    	16.93382
591.0000      	16920.5    	17.29951
592.0000      	16891.9    	17.63133
593.0000      	16863.4    	17.76605
594.0000      	16835    	17.97970
595.0000      	16806.7    	18.20852
596.0000      	16778.5    	18.38753
597.0000      	16750.4    	18.52016
598.0000      	16722.4    	18.64585
599.0000      	16694.5    	18.66120
600.0000      	16666.7    	18.73790
601.0000      	16638.9    	18.73006
602.0000      	16611.3    	18.75408
603.0000      	16583.7    	18.74210
604.0000      	16556.3    	18.71231
605.0000      	16528.9    	18.70481
606.0000      	16501.7    	18.77921
607.0000      	16474.5    	18.75901
608.0000      	16447.4    	18.70452
609.0000      	16420.4    	18.71352
610.0000      	16393.4    	18.73876
611.0000      	16366.6    	18.80159
612.0000      	16339.9    	18.76891
613.0000      	16313.2    	18.76842
614.0000      	16286.6    	18.75258
615.0000      	16260.2    	18.75393
616.0000      	16233.8    	18.78190
617.0000      	16207.5    	18.75302
618.0000      	16181.2    	18.70155
619.0000      	16155.1    	18.69667
620.0000      	16129    	18.71831
621.0000      	16103.1    	18.73778
622.0000      	16077.2    	18.72162
623.0000      	16051.4    	18.79021
624.0000      	16025.6    	18.83414
625.0000      	16000    	18.90045
626.0000      	15974.4    	18.92287
627.0000      	15949    	18.96936
628.0000      	15923.6    	18.98659
629.0000      	15898.3    	19.07413
630.0000      	15873    	19.02364
631.0000      	15847.9    	19.02492
632.0000      	15822.8    	19.04234
633.0000      	15797.8    	19.11383
634.0000      	15772.9    	19.19840
635.0000      	15748    	19.29511
636.0000      	15723.3    	19.31304
637.0000      	15698.6    	19.31578
638.0000      	15674    	19.34916
639.0000      	15649.5    	19.48756
640.0000      	15625    	19.58743
641.0000      	15600.6    	19.63428
642.0000      	15576.3    	19.65307
643.0000      	15552.1    	19.80124
644.0000      	15528    	19.95774
645.0000      	15503.9    	20.13778
646.0000      	15479.9    	20.31537
647.0000      	15456    	20.36438
648.0000      	15432.1    	20.44382
649.0000      	15408.3    	20.50975
650.0000      	15384.6    	20.71041
651.0000      	15361    	20.90275
652.0000      	15337.4    	21.07857
653.0000      	15313.9    	21.15039
654.0000      	15290.5    	21.33162
655.0000      	15267.2    	21.58461
656.0000      	15243.9    	21.86347
657.0000      	15220.7    	22.06969
658.0000      	15197.6    	22.18992
659.0000      	15174.5    	22.35624
660.0000      	15151.5    	22.58615
661.0000      	15128.6    	22.68840
662.0000      	15105.7    	22.88902
663.0000      	15083    	22.98417
664.0000      	15060.2    	23.08032
665.0000      	15037.6    	23.14265
666.0000      	15015    	23.24442
667.0000      	14992.5    	23.39014
668.0000      	14970.1    	23.45105
669.0000      	14947.7    	23.55117
670.0000      	14925.4    	23.58167
671.0000      	14903.1    	23.57905
672.0000      	14881    	23.54891
673.0000      	14858.8    	23.53624
674.0000      	14836.8    	23.57236
675.0000      	14814.8    	23.60011
676.0000      	14792.9    	23.53903
677.0000      	14771    	23.53297
678.0000      	14749.3    	23.48486
679.0000      	14727.5    	23.37054
680.0000      	14705.9    	23.30524
681.0000      	14684.3    	23.21087
682.0000      	14662.8    	23.09672
683.0000      	14641.3    	23.01470
684.0000      	14619.9    	22.96772
685.0000      	14598.5    	22.81864
686.0000      	14577.3    	22.70879
687.0000      	14556    	22.59114
688.0000      	14534.9    	22.56709
689.0000      	14513.8    	22.45359
690.0000      	14492.8    	22.44320
691.0000      	14471.8    	22.30390
692.0000      	14450.9    	22.14501
693.0000      	14430    	22.11442
694.0000      	14409.2    	22.09273
695.0000      	14388.5    	21.92034
696.0000      	14367.8    	21.68641
697.0000      	14347.2    	21.55646
698.0000      	14326.6    	21.53228
699.0000      	14306.2    	21.40444
700.0000      	14285.7    	21.34091
701.0000      	14265.3    	21.20675
702.0000      	14245    	20.98700
703.0000      	14224.8    	20.87406
704.0000      	14204.5    	20.76186
705.0000      	14184.4    	20.73355
706.0000      	14164.3    	20.46435
707.0000      	14144.3    	20.19256
708.0000      	14124.3    	20.12260
709.0000      	14104.4    	20.01744
710.0000      	14084.5    	20.05225
711.0000      	14064.7    	20.10027
712.0000      	14044.9    	20.04232
713.0000      	14025.2    	20.01335
714.0000      	14005.6    	19.89084
715.0000      	13986    	19.91752
716.0000      	13966.5    	19.96189
717.0000      	13947    	20.12845
718.0000      	13927.6    	20.18536
719.0000      	13908.2    	20.32886
720.0000      	13888.9    	20.48323
721.0000      	13869.6    	20.77443
722.0000      	13850.4    	21.05811
723.0000      	13831.3    	21.17781
724.0000      	13812.2    	21.33778
725.0000      	13793.1    	21.38820
726.0000      	13774.1    	21.68515
727.0000      	13755.2    	21.95788
728.0000      	13736.3    	22.15009
729.0000      	13717.4    	22.47736
730.0000      	13698.6    	22.80744
731.0000      	13679.9    	23.14112
732.0000      	13661.2    	23.30428
733.0000      	13642.6    	23.64088
734.0000      	13624    	24.01121
735.0000      	13605.4    	24.48683
736.0000      	13587    	24.92070
737.0000      	13568.5    	25.20402
738.0000      	13550.1    	25.92614
739.0000      	13531.8    	26.51189
740.0000      	13513.5    	27.18278
741.0000      	13495.3    	27.91962
742.0000      	13477.1    	28.34815
743.0000      	13459    	29.19600
744.0000      	13440.9    	30.03841
745.0000      	13422.8    	30.94308
746.0000      	13404.8    	31.84394
747.0000      	13386.9    	32.37288
748.0000      	13369    	33.52678
749.0000      	13351.1    	34.56085
750.0000      	13333.3    	35.79366
751.0000      	13315.6    	36.46252
752.0000      	13297.9    	37.82751
753.0000      	13280.2    	39.30034
754.0000      	13262.6    	40.47904
755.0000      	13245    	41.63692
756.0000      	13227.5    	42.27091
757.0000      	13210    	43.72881
758.0000      	13192.6    	45.26932
759.0000      	13175.2    	46.60562
760.0000      	13157.9    	47.98407
761.0000      	13140.6    	48.60876
762.0000      	13123.4    	49.95646
763.0000      	13106.2    	51.58361
764.0000      	13089    	53.02672
765.0000      	13071.9    	53.67791
766.0000      	13054.8    	54.50992
767.0000      	13037.8    	55.21315
768.0000      	13020.8    	55.67634
769.0000      	13003.9    	56.32931
770.0000      	12987    	56.68176
771.0000      	12970.2    	57.57335
772.0000      	12953.4    	58.15535
773.0000      	12936.6    	58.70985
774.0000      	12919.9    	58.99155
775.0000      	12903.2    	59.38758
776.0000      	12886.6    	59.58771
777.0000      	12870    	59.64747
778.0000      	12853.5    	59.65811
779.0000      	12837    	59.91019
780.0000      	12820.5    	60.13511
781.0000      	12804.1    	60.48713
782.0000      	12787.7    	60.74725
783.0000      	12771.4    	60.90238
784.0000      	12755.1    	60.93185
785.0000      	12738.9    	61.09422
786.0000      	12722.6    	61.18578
787.0000      	12706.5    	61.49083
788.0000      	12690.4    	61.95565
789.0000      	12674.3    	62.05725
790.0000      	12658.2    	61.91233
791.0000      	12642.2    	61.36022
792.0000      	12626.3    	61.21078
793.0000      	12610.3    	61.16600
794.0000      	12594.5    	61.41883
795.0000      	12578.6    	61.86171
796.0000      	12562.8    	62.20147
797.0000      	12547.1    	62.42184
798.0000      	12531.3    	62.37889
799.0000      	12515.6    	62.38628
800.0000      	12500    	62.45134