File: data/Reflectance_measurements/Reflectance_2019_material/63/63_3.txt
Unit Serial No : 240-IM0P2424-EU
Integration Time : 10 ms
Time Average: 10
Binning Average: 2
FFT Smoothing: 0%
Project Name : RPS900-R
Sample Name :  SM240-IMOP2424-EU
Measurement No : 1
Measurement Time : 06/03/2019   14:59:06

Wavelength(nm)	Wavenumber(1/cm)	Transmittance(%)
300.0000      	33333.3    	11.27981
301.0000      	33222.6    	10.24171
302.0000      	33112.6    	9.65771
303.0000      	33003.3    	9.20457
304.0000      	32894.7    	7.68432
305.0000      	32786.9    	7.79577
306.0000      	32679.7    	8.58750
307.0000      	32573.3    	8.95071
308.0000      	32467.5    	9.76564
309.0000      	32362.5    	9.11886
310.0000      	32258.1    	8.45698
311.0000      	32154.3    	8.91457
312.0000      	32051.3    	9.22411
313.0000      	31948.9    	9.31703
314.0000      	31847.1    	8.57714
315.0000      	31746    	7.99757
316.0000      	31645.6    	7.58744
317.0000      	31545.7    	7.62634
318.0000      	31446.5    	7.88404
319.0000      	31348    	7.44720
320.0000      	31250    	6.90049
321.0000      	31152.6    	6.51781
322.0000      	31055.9    	6.79234
323.0000      	30959.8    	7.07933
324.0000      	30864.2    	7.33478
325.0000      	30769.2    	7.10015
326.0000      	30674.8    	6.79207
327.0000      	30581    	6.61764
328.0000      	30487.8    	6.52727
329.0000      	30395.1    	6.55570
330.0000      	30303    	6.62475
331.0000      	30211.5    	6.53044
332.0000      	30120.5    	6.54178
333.0000      	30030    	6.55335
334.0000      	29940.1    	6.59971
335.0000      	29850.7    	6.38658
336.0000      	29761.9    	6.07954
337.0000      	29673.6    	5.89405
338.0000      	29585.8    	6.22391
339.0000      	29498.5    	6.17614
340.0000      	29411.8    	6.28755
341.0000      	29325.5    	6.08539
342.0000      	29239.8    	6.22204
343.0000      	29154.5    	6.00755
344.0000      	29069.8    	5.97824
345.0000      	28985.5    	6.25167
346.0000      	28901.7    	6.35683
347.0000      	28818.4    	6.26223
348.0000      	28735.6    	6.21815
349.0000      	28653.3    	6.13151
350.0000      	28571.4    	6.29855
351.0000      	28490    	6.19711
352.0000      	28409.1    	6.06660
353.0000      	28328.6    	6.02857
354.0000      	28248.6    	6.07046
355.0000      	28169    	6.06129
356.0000      	28089.9    	6.23933
357.0000      	28011.2    	6.15988
358.0000      	27933    	6.11657
359.0000      	27855.2    	6.25794
360.0000      	27777.8    	6.20722
361.0000      	27700.8    	6.35186
362.0000      	27624.3    	6.50272
363.0000      	27548.2    	6.59577
364.0000      	27472.5    	6.39275
365.0000      	27397.3    	6.33465
366.0000      	27322.4    	6.56418
367.0000      	27248    	6.88402
368.0000      	27173.9    	6.96528
369.0000      	27100.3    	7.00400
370.0000      	27027    	7.01077
371.0000      	26954.2    	7.00488
372.0000      	26881.7    	7.06687
373.0000      	26809.7    	7.02350
374.0000      	26738    	7.08740
375.0000      	26666.7    	7.17237
376.0000      	26595.7    	7.43005
377.0000      	26525.2    	7.52094
378.0000      	26455    	7.53773
379.0000      	26385.2    	7.53977
380.0000      	26315.8    	7.68789
381.0000      	26246.7    	7.76750
382.0000      	26178    	7.87586
383.0000      	26109.7    	8.08980
384.0000      	26041.7    	8.30303
385.0000      	25974    	8.49336
386.0000      	25906.7    	8.62370
387.0000      	25839.8    	8.85981
388.0000      	25773.2    	8.85941
389.0000      	25706.9    	8.90673
390.0000      	25641    	9.09768
391.0000      	25575.4    	9.21440
392.0000      	25510.2    	9.36902
393.0000      	25445.3    	9.57665
394.0000      	25380.7    	9.90880
395.0000      	25316.5    	10.11252
396.0000      	25252.5    	10.36568
397.0000      	25188.9    	10.39291
398.0000      	25125.6    	10.53418
399.0000      	25062.7    	10.77181
400.0000      	25000    	11.04470
401.0000      	24937.7    	11.16039
402.0000      	24875.6    	11.24366
403.0000      	24813.9    	11.40228
404.0000      	24752.5    	11.60493
405.0000      	24691.4    	11.91235
406.0000      	24630.5    	12.21402
407.0000      	24570    	12.55833
408.0000      	24509.8    	12.71424
409.0000      	24449.9    	12.79050
410.0000      	24390.2    	13.05349
411.0000      	24330.9    	13.22488
412.0000      	24271.8    	13.31758
413.0000      	24213.1    	13.55928
414.0000      	24154.6    	13.79127
415.0000      	24096.4    	13.99955
416.0000      	24038.5    	14.10300
417.0000      	23980.8    	14.21198
418.0000      	23923.4    	14.09139
419.0000      	23866.3    	14.16647
420.0000      	23809.5    	14.28054
421.0000      	23753    	14.43231
422.0000      	23696.7    	14.61368
423.0000      	23640.7    	14.73986
424.0000      	23584.9    	14.85142
425.0000      	23529.4    	14.85396
426.0000      	23474.2    	14.94061
427.0000      	23419.2    	15.09499
428.0000      	23364.5    	15.23600
429.0000      	23310    	15.33900
430.0000      	23255.8    	15.33505
431.0000      	23201.9    	15.28046
432.0000      	23148.1    	15.40414
433.0000      	23094.7    	15.67529
434.0000      	23041.5    	15.71224
435.0000      	22988.5    	15.71120
436.0000      	22935.8    	15.84499
437.0000      	22883.3    	16.06379
438.0000      	22831.1    	16.14549
439.0000      	22779    	16.31325
440.0000      	22727.3    	16.42296
441.0000      	22675.7    	16.41115
442.0000      	22624.4    	16.34245
443.0000      	22573.4    	16.44144
444.0000      	22522.5    	16.54324
445.0000      	22471.9    	16.60434
446.0000      	22421.5    	16.61253
447.0000      	22371.4    	16.76026
448.0000      	22321.4    	16.73526
449.0000      	22271.7    	16.72092
450.0000      	22222.2    	16.76624
451.0000      	22172.9    	16.88243
452.0000      	22123.9    	16.99819
453.0000      	22075.1    	17.09714
454.0000      	22026.4    	17.21220
455.0000      	21978    	17.26926
456.0000      	21929.8    	17.45222
457.0000      	21881.8    	17.53356
458.0000      	21834.1    	17.53654
459.0000      	21786.5    	17.63874
460.0000      	21739.1    	17.77841
461.0000      	21692    	17.90458
462.0000      	21645    	17.95412
463.0000      	21598.3    	18.03828
464.0000      	21551.7    	18.16375
465.0000      	21505.4    	18.40311
466.0000      	21459.2    	18.60653
467.0000      	21413.3    	18.74337
468.0000      	21367.5    	18.93462
469.0000      	21322    	19.16804
470.0000      	21276.6    	19.25124
471.0000      	21231.4    	19.32481
472.0000      	21186.4    	19.43550
473.0000      	21141.6    	19.63527
474.0000      	21097    	19.85926
475.0000      	21052.6    	20.03793
476.0000      	21008.4    	20.23273
477.0000      	20964.4    	20.45396
478.0000      	20920.5    	20.55402
479.0000      	20876.8    	20.76833
480.0000      	20833.3    	21.06367
481.0000      	20790    	21.32882
482.0000      	20746.9    	21.52520
483.0000      	20703.9    	21.71930
484.0000      	20661.2    	21.92859
485.0000      	20618.6    	22.04041
486.0000      	20576.1    	22.27418
487.0000      	20533.9    	22.53098
488.0000      	20491.8    	22.79577
489.0000      	20449.9    	23.03160
490.0000      	20408.2    	23.20245
491.0000      	20366.6    	23.46324
492.0000      	20325.2    	23.61163
493.0000      	20284    	23.86404
494.0000      	20242.9    	24.04894
495.0000      	20202    	24.21098
496.0000      	20161.3    	24.42879
497.0000      	20120.7    	24.55482
498.0000      	20080.3    	24.67425
499.0000      	20040.1    	24.73629
500.0000      	20000    	24.82721
501.0000      	19960.1    	24.89467
502.0000      	19920.3    	24.94022
503.0000      	19880.7    	25.00909
504.0000      	19841.3    	25.07296
505.0000      	19802    	25.00723
506.0000      	19762.8    	24.96354
507.0000      	19723.9    	24.85711
508.0000      	19685    	24.75702
509.0000      	19646.4    	24.53587
510.0000      	19607.8    	24.25585
511.0000      	19569.5    	23.96679
512.0000      	19531.2    	23.61135
513.0000      	19493.2    	23.42807
514.0000      	19455.3    	23.13820
515.0000      	19417.5    	22.76850
516.0000      	19379.8    	22.29856
517.0000      	19342.4    	21.78093
518.0000      	19305    	21.28863
519.0000      	19267.8    	21.02619
520.0000      	19230.8    	20.51757
521.0000      	19193.9    	20.01683
522.0000      	19157.1    	19.55145
523.0000      	19120.5    	19.06153
524.0000      	19084    	18.63396
525.0000      	19047.6    	18.21967
526.0000      	19011.4    	18.03653
527.0000      	18975.3    	17.64441
528.0000      	18939.4    	17.24148
529.0000      	18903.6    	16.90856
530.0000      	18867.9    	16.61980
531.0000      	18832.4    	16.39340
532.0000      	18797    	16.15515
533.0000      	18761.7    	16.04413
534.0000      	18726.6    	15.80222
535.0000      	18691.6    	15.65119
536.0000      	18656.7    	15.51866
537.0000      	18622    	15.39704
538.0000      	18587.4    	15.31771
539.0000      	18552.9    	15.29354
540.0000      	18518.5    	15.27379
541.0000      	18484.3    	15.24175
542.0000      	18450.2    	15.21463
543.0000      	18416.2    	15.23930
544.0000      	18382.4    	15.22185
545.0000      	18348.6    	15.21412
546.0000      	18315    	15.20803
547.0000      	18281.5    	15.19061
548.0000      	18248.2    	15.13706
549.0000      	18214.9    	14.99753
550.0000      	18181.8    	14.89411
551.0000      	18148.8    	14.79458
552.0000      	18115.9    	14.59369
553.0000      	18083.2    	14.39423
554.0000      	18050.5    	14.19398
555.0000      	18018    	14.00344
556.0000      	17985.6    	13.78631
557.0000      	17953.3    	13.54665
558.0000      	17921.1    	13.41226
559.0000      	17889.1    	13.14371
560.0000      	17857.1    	12.92569
561.0000      	17825.3    	12.67482
562.0000      	17793.6    	12.39792
563.0000      	17762    	12.17604
564.0000      	17730.5    	12.12372
565.0000      	17699.1    	11.98354
566.0000      	17667.8    	11.85195
567.0000      	17636.7    	11.69146
568.0000      	17605.6    	11.61601
569.0000      	17574.7    	11.59939
570.0000      	17543.9    	11.59943
571.0000      	17513.1    	11.58194
572.0000      	17482.5    	11.63887
573.0000      	17452    	11.75782
574.0000      	17421.6    	11.91930
575.0000      	17391.3    	11.99667
576.0000      	17361.1    	12.19386
577.0000      	17331    	12.44414
578.0000      	17301    	12.71739
579.0000      	17271.2    	13.02336
580.0000      	17241.4    	13.35533
581.0000      	17211.7    	13.57440
582.0000      	17182.1    	14.01498
583.0000      	17152.7    	14.39010
584.0000      	17123.3    	14.75076
585.0000      	17094    	15.16612
586.0000      	17064.8    	15.57139
587.0000      	17035.8    	15.78941
588.0000      	17006.8    	16.17491
589.0000      	16977.9    	16.58754
590.0000      	16949.2    	16.97852
591.0000      	16920.5    	17.33344
592.0000      	16891.9    	17.59987
593.0000      	16863.4    	17.74823
594.0000      	16835    	17.99764
595.0000      	16806.7    	18.26285
596.0000      	16778.5    	18.39799
597.0000      	16750.4    	18.52960
598.0000      	16722.4    	18.61280
599.0000      	16694.5    	18.64194
600.0000      	16666.7    	18.66841
601.0000      	16638.9    	18.70752
602.0000      	16611.3    	18.76752
603.0000      	16583.7    	18.81719
604.0000      	16556.3    	18.79812
605.0000      	16528.9    	18.81150
606.0000      	16501.7    	18.85425
607.0000      	16474.5    	18.80519
608.0000      	16447.4    	18.77989
609.0000      	16420.4    	18.80537
610.0000      	16393.4    	18.83554
611.0000      	16366.6    	18.84187
612.0000      	16339.9    	18.82604
613.0000      	16313.2    	18.81859
614.0000      	16286.6    	18.86818
615.0000      	16260.2    	18.87143
616.0000      	16233.8    	18.82297
617.0000      	16207.5    	18.82249
618.0000      	16181.2    	18.81595
619.0000      	16155.1    	18.84278
620.0000      	16129    	18.84711
621.0000      	16103.1    	18.82892
622.0000      	16077.2    	18.80343
623.0000      	16051.4    	18.85420
624.0000      	16025.6    	18.94072
625.0000      	16000    	19.01223
626.0000      	15974.4    	19.03381
627.0000      	15949    	19.02186
628.0000      	15923.6    	19.05455
629.0000      	15898.3    	19.15057
630.0000      	15873    	19.24132
631.0000      	15847.9    	19.23198
632.0000      	15822.8    	19.21912
633.0000      	15797.8    	19.15414
634.0000      	15772.9    	19.23183
635.0000      	15748    	19.39741
636.0000      	15723.3    	19.41740
637.0000      	15698.6    	19.43822
638.0000      	15674    	19.44570
639.0000      	15649.5    	19.55233
640.0000      	15625    	19.71509
641.0000      	15600.6    	19.79123
642.0000      	15576.3    	19.84603
643.0000      	15552.1    	19.93287
644.0000      	15528    	20.08766
645.0000      	15503.9    	20.20349
646.0000      	15479.9    	20.34269
647.0000      	15456    	20.40544
648.0000      	15432.1    	20.57804
649.0000      	15408.3    	20.65175
650.0000      	15384.6    	20.84806
651.0000      	15361    	21.05311
652.0000      	15337.4    	21.24638
653.0000      	15313.9    	21.31198
654.0000      	15290.5    	21.44249
655.0000      	15267.2    	21.63877
656.0000      	15243.9    	21.79807
657.0000      	15220.7    	22.01310
658.0000      	15197.6    	22.17977
659.0000      	15174.5    	22.40536
660.0000      	15151.5    	22.57216
661.0000      	15128.6    	22.65981
662.0000      	15105.7    	22.85900
663.0000      	15083    	22.95192
664.0000      	15060.2    	23.09093
665.0000      	15037.6    	23.19626
666.0000      	15015    	23.25040
667.0000      	14992.5    	23.34631
668.0000      	14970.1    	23.42052
669.0000      	14947.7    	23.57224
670.0000      	14925.4    	23.57637
671.0000      	14903.1    	23.64624
672.0000      	14881    	23.71048
673.0000      	14858.8    	23.73543
674.0000      	14836.8    	23.65424
675.0000      	14814.8    	23.58675
676.0000      	14792.9    	23.52922
677.0000      	14771    	23.52496
678.0000      	14749.3    	23.49557
679.0000      	14727.5    	23.38726
680.0000      	14705.9    	23.21649
681.0000      	14684.3    	23.18333
682.0000      	14662.8    	23.17401
683.0000      	14641.3    	23.10458
684.0000      	14619.9    	23.02817
685.0000      	14598.5    	22.95485
686.0000      	14577.3    	22.92289
687.0000      	14556    	22.78704
688.0000      	14534.9    	22.73177
689.0000      	14513.8    	22.50016
690.0000      	14492.8    	22.40563
691.0000      	14471.8    	22.35681
692.0000      	14450.9    	22.24453
693.0000      	14430    	22.19687
694.0000      	14409.2    	22.13262
695.0000      	14388.5    	22.02420
696.0000      	14367.8    	21.85444
697.0000      	14347.2    	21.69136
698.0000      	14326.6    	21.62413
699.0000      	14306.2    	21.50969
700.0000      	14285.7    	21.33772
701.0000      	14265.3    	21.20093
702.0000      	14245    	21.03257
703.0000      	14224.8    	20.99218
704.0000      	14204.5    	20.93830
705.0000      	14184.4    	20.84345
706.0000      	14164.3    	20.54449
707.0000      	14144.3    	20.50093
708.0000      	14124.3    	20.51005
709.0000      	14104.4    	20.52254
710.0000      	14084.5    	20.31612
711.0000      	14064.7    	20.11741
712.0000      	14044.9    	19.98949
713.0000      	14025.2    	19.99916
714.0000      	14005.6    	20.08374
715.0000      	13986    	20.11885
716.0000      	13966.5    	20.25387
717.0000      	13947    	20.45647
718.0000      	13927.6    	20.53660
719.0000      	13908.2    	20.63452
720.0000      	13888.9    	20.75829
721.0000      	13869.6    	21.03026
722.0000      	13850.4    	21.27257
723.0000      	13831.3    	21.41820
724.0000      	13812.2    	21.60036
725.0000      	13793.1    	21.72814
726.0000      	13774.1    	22.01111
727.0000      	13755.2    	22.15491
728.0000      	13736.3    	22.28648
729.0000      	13717.4    	22.68088
730.0000      	13698.6    	23.01779
731.0000      	13679.9    	23.26676
732.0000      	13661.2    	23.36838
733.0000      	13642.6    	23.83931
734.0000      	13624    	24.47882
735.0000      	13605.4    	24.95780
736.0000      	13587    	25.30995
737.0000      	13568.5    	25.51933
738.0000      	13550.1    	26.23615
739.0000      	13531.8    	26.76369
740.0000      	13513.5    	27.36693
741.0000      	13495.3    	28.00618
742.0000      	13477.1    	28.34065
743.0000      	13459    	29.13224
744.0000      	13440.9    	29.95730
745.0000      	13422.8    	30.91445
746.0000      	13404.8    	31.84005
747.0000      	13386.9    	32.41849
748.0000      	13369    	33.62776
749.0000      	13351.1    	34.65893
750.0000      	13333.3    	35.72517
751.0000      	13315.6    	36.29827
752.0000      	13297.9    	37.52474
753.0000      	13280.2    	38.98081
754.0000      	13262.6    	40.32278
755.0000      	13245    	41.72443
756.0000      	13227.5    	42.38244
757.0000      	13210    	43.72680
758.0000      	13192.6    	45.05182
759.0000      	13175.2    	46.64422
760.0000      	13157.9    	48.07973
761.0000      	13140.6    	48.69230
762.0000      	13123.4    	49.64267
763.0000      	13106.2    	50.76227
764.0000      	13089    	52.16392
765.0000      	13071.9    	52.80563
766.0000      	13054.8    	53.90638
767.0000      	13037.8    	54.65845
768.0000      	13020.8    	55.39213
769.0000      	13003.9    	56.07594
770.0000      	12987    	56.48287
771.0000      	12970.2    	57.30439
772.0000      	12953.4    	57.99166
773.0000      	12936.6    	58.58527
774.0000      	12919.9    	58.84471
775.0000      	12903.2    	59.04566
776.0000      	12886.6    	59.25148
777.0000      	12870    	59.48834
778.0000      	12853.5    	59.81961
779.0000      	12837    	60.14467
780.0000      	12820.5    	60.41115
781.0000      	12804.1    	60.60994
782.0000      	12787.7    	60.86170
783.0000      	12771.4    	61.02807
784.0000      	12755.1    	61.03711
785.0000      	12738.9    	61.12850
786.0000      	12722.6    	61.35151
787.0000      	12706.5    	61.34955
788.0000      	12690.4    	61.79101
789.0000      	12674.3    	61.94500
790.0000      	12658.2    	62.23043
791.0000      	12642.2    	61.89348
792.0000      	12626.3    	61.71125
793.0000      	12610.3    	61.73560
794.0000      	12594.5    	62.05864
795.0000      	12578.6    	62.56787
796.0000      	12562.8    	62.61395
797.0000      	12547.1    	62.63540
798.0000      	12531.3    	62.27730
799.0000      	12515.6    	62.24321
800.0000      	12500    	62.53655