File: data/Reflectance_measurements/Reflectance_2019_material/6_white/6_w_1.txt
Unit Serial No : 240-IM0P2424-EU
Integration Time : 10 ms
Time Average: 10
Binning Average: 2
FFT Smoothing: 0%
Project Name : RPS900-R
Sample Name :  SM240-IMOP2424-EU
Measurement No : 1
Measurement Time : 06/03/2019   16:44:16

Wavelength(nm)	Wavenumber(1/cm)	Transmittance(%)
300.0000      	33333.3    	18.50093
301.0000      	33222.6    	16.82519
302.0000      	33112.6    	15.72449
303.0000      	33003.3    	14.99203
304.0000      	32894.7    	15.35461
305.0000      	32786.9    	15.70093
306.0000      	32679.7    	15.77798
307.0000      	32573.3    	14.76059
308.0000      	32467.5    	13.67617
309.0000      	32362.5    	13.58610
310.0000      	32258.1    	13.25919
311.0000      	32154.3    	13.10012
312.0000      	32051.3    	11.74988
313.0000      	31948.9    	11.54177
314.0000      	31847.1    	11.54860
315.0000      	31746    	12.09409
316.0000      	31645.6    	11.99389
317.0000      	31545.7    	12.11532
318.0000      	31446.5    	11.72455
319.0000      	31348    	10.92733
320.0000      	31250    	10.56073
321.0000      	31152.6    	10.67548
322.0000      	31055.9    	10.67565
323.0000      	30959.8    	10.47318
324.0000      	30864.2    	10.42378
325.0000      	30769.2    	9.89057
326.0000      	30674.8    	9.82499
327.0000      	30581    	9.89755
328.0000      	30487.8    	9.83184
329.0000      	30395.1    	9.70304
330.0000      	30303    	9.86566
331.0000      	30211.5    	10.19401
332.0000      	30120.5    	10.05399
333.0000      	30030    	9.92794
334.0000      	29940.1    	9.72567
335.0000      	29850.7    	9.60896
336.0000      	29761.9    	9.40738
337.0000      	29673.6    	9.62941
338.0000      	29585.8    	9.97245
339.0000      	29498.5    	9.83482
340.0000      	29411.8    	9.78034
341.0000      	29325.5    	9.65187
342.0000      	29239.8    	10.11132
343.0000      	29154.5    	10.32354
344.0000      	29069.8    	10.53911
345.0000      	28985.5    	10.49794
346.0000      	28901.7    	10.20019
347.0000      	28818.4    	10.33380
348.0000      	28735.6    	10.53692
349.0000      	28653.3    	10.95043
350.0000      	28571.4    	10.94330
351.0000      	28490    	11.12648
352.0000      	28409.1    	11.04532
353.0000      	28328.6    	11.28323
354.0000      	28248.6    	11.53010
355.0000      	28169    	11.94196
356.0000      	28089.9    	12.26535
357.0000      	28011.2    	12.65524
358.0000      	27933    	13.08026
359.0000      	27855.2    	13.51659
360.0000      	27777.8    	14.15041
361.0000      	27700.8    	14.46933
362.0000      	27624.3    	14.55648
363.0000      	27548.2    	14.95876
364.0000      	27472.5    	15.24524
365.0000      	27397.3    	15.63461
366.0000      	27322.4    	16.29439
367.0000      	27248    	16.47945
368.0000      	27173.9    	16.71685
369.0000      	27100.3    	17.23085
370.0000      	27027    	17.98546
371.0000      	26954.2    	18.15928
372.0000      	26881.7    	18.25114
373.0000      	26809.7    	18.40098
374.0000      	26738    	18.72230
375.0000      	26666.7    	19.33895
376.0000      	26595.7    	20.05882
377.0000      	26525.2    	20.82599
378.0000      	26455    	21.36239
379.0000      	26385.2    	21.97436
380.0000      	26315.8    	22.57050
381.0000      	26246.7    	23.35060
382.0000      	26178    	23.67795
383.0000      	26109.7    	24.42365
384.0000      	26041.7    	25.01100
385.0000      	25974    	25.55097
386.0000      	25906.7    	26.05904
387.0000      	25839.8    	26.75850
388.0000      	25773.2    	27.62587
389.0000      	25706.9    	28.24035
390.0000      	25641    	28.84011
391.0000      	25575.4    	29.39665
392.0000      	25510.2    	29.71045
393.0000      	25445.3    	30.34055
394.0000      	25380.7    	31.23380
395.0000      	25316.5    	31.99504
396.0000      	25252.5    	32.67722
397.0000      	25188.9    	33.43270
398.0000      	25125.6    	34.51392
399.0000      	25062.7    	35.57372
400.0000      	25000    	36.72325
401.0000      	24937.7    	37.85992
402.0000      	24875.6    	38.46523
403.0000      	24813.9    	39.88561
404.0000      	24752.5    	41.61457
405.0000      	24691.4    	43.26101
406.0000      	24630.5    	44.97648
407.0000      	24570    	46.87758
408.0000      	24509.8    	48.84061
409.0000      	24449.9    	50.80460
410.0000      	24390.2    	52.91890
411.0000      	24330.9    	55.35571
412.0000      	24271.8    	56.43534
413.0000      	24213.1    	58.31389
414.0000      	24154.6    	59.92311
415.0000      	24096.4    	61.70294
416.0000      	24038.5    	63.39718
417.0000      	23980.8    	64.80069
418.0000      	23923.4    	65.70028
419.0000      	23866.3    	66.19595
420.0000      	23809.5    	66.85790
421.0000      	23753    	67.30815
422.0000      	23696.7    	68.08689
423.0000      	23640.7    	68.80669
424.0000      	23584.9    	69.25282
425.0000      	23529.4    	69.66256
426.0000      	23474.2    	70.11734
427.0000      	23419.2    	71.06477
428.0000      	23364.5    	71.71626
429.0000      	23310    	72.34296
430.0000      	23255.8    	72.66664
431.0000      	23201.9    	73.49918
432.0000      	23148.1    	74.41770
433.0000      	23094.7    	75.20496
434.0000      	23041.5    	75.84469
435.0000      	22988.5    	76.28555
436.0000      	22935.8    	76.57874
437.0000      	22883.3    	76.81590
438.0000      	22831.1    	76.97286
439.0000      	22779    	77.33158
440.0000      	22727.3    	77.56586
441.0000      	22675.7    	77.66036
442.0000      	22624.4    	77.70730
443.0000      	22573.4    	77.55318
444.0000      	22522.5    	77.42003
445.0000      	22471.9    	77.08505
446.0000      	22421.5    	76.92274
447.0000      	22371.4    	76.45076
448.0000      	22321.4    	75.96189
449.0000      	22271.7    	75.26548
450.0000      	22222.2    	74.68223
451.0000      	22172.9    	74.44176
452.0000      	22123.9    	74.27689
453.0000      	22075.1    	74.31435
454.0000      	22026.4    	74.18775
455.0000      	21978    	74.16930
456.0000      	21929.8    	73.92088
457.0000      	21881.8    	73.77085
458.0000      	21834.1    	73.66407
459.0000      	21786.5    	73.54086
460.0000      	21739.1    	73.44070
461.0000      	21692    	73.41146
462.0000      	21645    	73.33292
463.0000      	21598.3    	73.12459
464.0000      	21551.7    	72.87115
465.0000      	21505.4    	72.84334
466.0000      	21459.2    	72.87688
467.0000      	21413.3    	72.93557
468.0000      	21367.5    	72.91381
469.0000      	21322    	72.93926
470.0000      	21276.6    	73.03441
471.0000      	21231.4    	73.14703
472.0000      	21186.4    	73.29037
473.0000      	21141.6    	73.38255
474.0000      	21097    	73.44239
475.0000      	21052.6    	73.52276
476.0000      	21008.4    	73.63417
477.0000      	20964.4    	73.67673
478.0000      	20920.5    	73.65009
479.0000      	20876.8    	73.58865
480.0000      	20833.3    	73.43233
481.0000      	20790    	73.31220
482.0000      	20746.9    	73.25733
483.0000      	20703.9    	73.32986
484.0000      	20661.2    	73.31191
485.0000      	20618.6    	73.29241
486.0000      	20576.1    	73.16642
487.0000      	20533.9    	73.21394
488.0000      	20491.8    	73.40722
489.0000      	20449.9    	73.49995
490.0000      	20408.2    	73.43542
491.0000      	20366.6    	73.39832
492.0000      	20325.2    	73.43356
493.0000      	20284    	73.54308
494.0000      	20242.9    	73.70203
495.0000      	20202    	73.87907
496.0000      	20161.3    	73.97752
497.0000      	20120.7    	73.92464
498.0000      	20080.3    	73.89771
499.0000      	20040.1    	73.87135
500.0000      	20000    	73.91289
501.0000      	19960.1    	73.89098
502.0000      	19920.3    	73.83096
503.0000      	19880.7    	73.72768
504.0000      	19841.3    	73.67384
505.0000      	19802    	73.66805
506.0000      	19762.8    	73.67647
507.0000      	19723.9    	73.55296
508.0000      	19685    	73.34418
509.0000      	19646.4    	73.11817
510.0000      	19607.8    	72.96265
511.0000      	19569.5    	72.83023
512.0000      	19531.2    	72.59402
513.0000      	19493.2    	72.45200
514.0000      	19455.3    	72.09692
515.0000      	19417.5    	71.72926
516.0000      	19379.8    	71.46799
517.0000      	19342.4    	71.12887
518.0000      	19305    	70.74061
519.0000      	19267.8    	70.56873
520.0000      	19230.8    	70.24189
521.0000      	19193.9    	69.91776
522.0000      	19157.1    	69.51361
523.0000      	19120.5    	69.19237
524.0000      	19084    	68.85117
525.0000      	19047.6    	68.63306
526.0000      	19011.4    	68.52979
527.0000      	18975.3    	68.25263
528.0000      	18939.4    	67.90991
529.0000      	18903.6    	67.62556
530.0000      	18867.9    	67.37057
531.0000      	18832.4    	67.15980
532.0000      	18797    	66.98634
533.0000      	18761.7    	66.87730
534.0000      	18726.6    	66.77071
535.0000      	18691.6    	66.71380
536.0000      	18656.7    	66.67150
537.0000      	18622    	66.51845
538.0000      	18587.4    	66.38046
539.0000      	18552.9    	66.34248
540.0000      	18518.5    	66.25364
541.0000      	18484.3    	66.21117
542.0000      	18450.2    	66.08902
543.0000      	18416.2    	66.04552
544.0000      	18382.4    	66.02589
545.0000      	18348.6    	65.97797
546.0000      	18315    	65.81188
547.0000      	18281.5    	65.68518
548.0000      	18248.2    	65.55978
549.0000      	18214.9    	65.36877
550.0000      	18181.8    	65.25813
551.0000      	18148.8    	65.22078
552.0000      	18115.9    	65.11143
553.0000      	18083.2    	64.80334
554.0000      	18050.5    	64.47694
555.0000      	18018    	64.13754
556.0000      	17985.6    	63.75243
557.0000      	17953.3    	63.34955
558.0000      	17921.1    	63.13305
559.0000      	17889.1    	62.74199
560.0000      	17857.1    	62.26062
561.0000      	17825.3    	61.81495
562.0000      	17793.6    	61.38899
563.0000      	17762    	60.97318
564.0000      	17730.5    	60.77499
565.0000      	17699.1    	60.43966
566.0000      	17667.8    	60.08560
567.0000      	17636.7    	59.67827
568.0000      	17605.6    	59.28581
569.0000      	17574.7    	59.01558
570.0000      	17543.9    	58.94167
571.0000      	17513.1    	58.87470
572.0000      	17482.5    	58.92211
573.0000      	17452    	58.99850
574.0000      	17421.6    	59.20131
575.0000      	17391.3    	59.33233
576.0000      	17361.1    	59.64218
577.0000      	17331    	60.05055
578.0000      	17301    	60.55272
579.0000      	17271.2    	61.21072
580.0000      	17241.4    	61.87194
581.0000      	17211.7    	62.24561
582.0000      	17182.1    	62.99924
583.0000      	17152.7    	63.74070
584.0000      	17123.3    	64.35201
585.0000      	17094    	64.92310
586.0000      	17064.8    	65.55625
587.0000      	17035.8    	65.85462
588.0000      	17006.8    	66.35873
589.0000      	16977.9    	66.73860
590.0000      	16949.2    	67.02769
591.0000      	16920.5    	67.35667
592.0000      	16891.9    	67.65405
593.0000      	16863.4    	67.80859
594.0000      	16835    	67.97280
595.0000      	16806.7    	68.21246
596.0000      	16778.5    	68.51163
597.0000      	16750.4    	68.72009
598.0000      	16722.4    	68.80885
599.0000      	16694.5    	68.82563
600.0000      	16666.7    	68.86181
601.0000      	16638.9    	68.91714
602.0000      	16611.3    	68.88841
603.0000      	16583.7    	68.92030
604.0000      	16556.3    	68.97612
605.0000      	16528.9    	69.08784
606.0000      	16501.7    	69.15617
607.0000      	16474.5    	69.12609
608.0000      	16447.4    	69.13685
609.0000      	16420.4    	69.17279
610.0000      	16393.4    	69.20709
611.0000      	16366.6    	69.12360
612.0000      	16339.9    	69.05556
613.0000      	16313.2    	68.98099
614.0000      	16286.6    	68.99032
615.0000      	16260.2    	69.01633
616.0000      	16233.8    	68.97505
617.0000      	16207.5    	68.96032
618.0000      	16181.2    	68.93853
619.0000      	16155.1    	68.88020
620.0000      	16129    	68.75319
621.0000      	16103.1    	68.72778
622.0000      	16077.2    	68.77422
623.0000      	16051.4    	68.95458
624.0000      	16025.6    	69.00291
625.0000      	16000    	69.06025
626.0000      	15974.4    	69.06652
627.0000      	15949    	69.09033
628.0000      	15923.6    	69.16981
629.0000      	15898.3    	69.29818
630.0000      	15873    	69.46859
631.0000      	15847.9    	69.56866
632.0000      	15822.8    	69.63809
633.0000      	15797.8    	69.73701
634.0000      	15772.9    	70.00217
635.0000      	15748    	70.16921
636.0000      	15723.3    	70.31396
637.0000      	15698.6    	70.48882
638.0000      	15674    	70.89058
639.0000      	15649.5    	71.29361
640.0000      	15625    	71.60773
641.0000      	15600.6    	71.96851
642.0000      	15576.3    	72.11507
643.0000      	15552.1    	72.38203
644.0000      	15528    	72.71033
645.0000      	15503.9    	73.09229
646.0000      	15479.9    	73.66204
647.0000      	15456    	73.89587
648.0000      	15432.1    	74.25323
649.0000      	15408.3    	74.58550
650.0000      	15384.6    	75.01540
651.0000      	15361    	75.41405
652.0000      	15337.4    	75.59758
653.0000      	15313.9    	75.76158
654.0000      	15290.5    	76.17310
655.0000      	15267.2    	76.70532
656.0000      	15243.9    	77.26819
657.0000      	15220.7    	77.66760
658.0000      	15197.6    	77.84927
659.0000      	15174.5    	78.14021
660.0000      	15151.5    	78.42381
661.0000      	15128.6    	78.74821
662.0000      	15105.7    	79.09530
663.0000      	15083    	79.18866
664.0000      	15060.2    	79.27226
665.0000      	15037.6    	79.36095
666.0000      	15015    	79.54448
667.0000      	14992.5    	79.71740
668.0000      	14970.1    	79.84512
669.0000      	14947.7    	79.91759
670.0000      	14925.4    	80.03101
671.0000      	14903.1    	80.04597
672.0000      	14881    	80.09302
673.0000      	14858.8    	80.19994
674.0000      	14836.8    	80.25713
675.0000      	14814.8    	80.19166
676.0000      	14792.9    	79.99891
677.0000      	14771    	79.74699
678.0000      	14749.3    	79.58296
679.0000      	14727.5    	79.34869
680.0000      	14705.9    	79.25541
681.0000      	14684.3    	79.23150
682.0000      	14662.8    	79.05607
683.0000      	14641.3    	78.96169
684.0000      	14619.9    	78.67752
685.0000      	14598.5    	78.49370
686.0000      	14577.3    	78.54781
687.0000      	14556    	78.44814
688.0000      	14534.9    	78.35872
689.0000      	14513.8    	77.99175
690.0000      	14492.8    	77.89762
691.0000      	14471.8    	77.93804
692.0000      	14450.9    	78.13953
693.0000      	14430    	78.25745
694.0000      	14409.2    	78.43459
695.0000      	14388.5    	78.48573
696.0000      	14367.8    	78.45904
697.0000      	14347.2    	78.47068
698.0000      	14326.6    	78.58372
699.0000      	14306.2    	78.73133
700.0000      	14285.7    	78.86423
701.0000      	14265.3    	78.75620
702.0000      	14245    	78.69419
703.0000      	14224.8    	78.75462
704.0000      	14204.5    	78.85448
705.0000      	14184.4    	79.03368
706.0000      	14164.3    	78.96396
707.0000      	14144.3    	78.74281
708.0000      	14124.3    	78.70942
709.0000      	14104.4    	78.80782
710.0000      	14084.5    	78.75598
711.0000      	14064.7    	78.52441
712.0000      	14044.9    	78.36053
713.0000      	14025.2    	78.29390
714.0000      	14005.6    	78.28313
715.0000      	13986    	78.44763
716.0000      	13966.5    	78.65909
717.0000      	13947    	78.68678
718.0000      	13927.6    	78.68344
719.0000      	13908.2    	78.70242
720.0000      	13888.9    	78.52736
721.0000      	13869.6    	78.65652
722.0000      	13850.4    	78.99753
723.0000      	13831.3    	79.30962
724.0000      	13812.2    	79.36869
725.0000      	13793.1    	79.59845
726.0000      	13774.1    	79.49001
727.0000      	13755.2    	79.66817
728.0000      	13736.3    	79.72633
729.0000      	13717.4    	79.72588
730.0000      	13698.6    	79.43272
731.0000      	13679.9    	79.43375
732.0000      	13661.2    	79.57478
733.0000      	13642.6    	79.93517
734.0000      	13624    	80.05607
735.0000      	13605.4    	80.15067
736.0000      	13587    	80.26704
737.0000      	13568.5    	80.38158
738.0000      	13550.1    	80.73180
739.0000      	13531.8    	81.10262
740.0000      	13513.5    	81.29610
741.0000      	13495.3    	81.24618
742.0000      	13477.1    	81.16991
743.0000      	13459    	81.52667
744.0000      	13440.9    	81.94201
745.0000      	13422.8    	82.41251
746.0000      	13404.8    	82.21999
747.0000      	13386.9    	82.31511
748.0000      	13369    	82.54011
749.0000      	13351.1    	83.16779
750.0000      	13333.3    	83.50866
751.0000      	13315.6    	83.65849
752.0000      	13297.9    	83.87394
753.0000      	13280.2    	83.90216
754.0000      	13262.6    	84.00603
755.0000      	13245    	84.31490
756.0000      	13227.5    	84.49989
757.0000      	13210    	84.95360
758.0000      	13192.6    	85.17203
759.0000      	13175.2    	85.20105
760.0000      	13157.9    	85.14342
761.0000      	13140.6    	85.25294
762.0000      	13123.4    	85.52158
763.0000      	13106.2    	85.40375
764.0000      	13089    	85.07238
765.0000      	13071.9    	84.93507
766.0000      	13054.8    	84.83701
767.0000      	13037.8    	84.98765
768.0000      	13020.8    	85.21423
769.0000      	13003.9    	85.75775
770.0000      	12987    	85.88033
771.0000      	12970.2    	86.13686
772.0000      	12953.4    	85.79198
773.0000      	12936.6    	85.76720
774.0000      	12919.9    	85.80715
775.0000      	12903.2    	86.39525
776.0000      	12886.6    	86.78050
777.0000      	12870    	86.95604
778.0000      	12853.5    	86.74996
779.0000      	12837    	86.90681
780.0000      	12820.5    	86.90395
781.0000      	12804.1    	86.75906
782.0000      	12787.7    	86.43598
783.0000      	12771.4    	86.09220
784.0000      	12755.1    	85.96332
785.0000      	12738.9    	85.80148
786.0000      	12722.6    	86.32462
787.0000      	12706.5    	86.76221
788.0000      	12690.4    	86.96751
789.0000      	12674.3    	86.80345
790.0000      	12658.2    	86.13891
791.0000      	12642.2    	85.88427
792.0000      	12626.3    	85.98312
793.0000      	12610.3    	86.20194
794.0000      	12594.5    	86.40307
795.0000      	12578.6    	86.17350
796.0000      	12562.8    	85.97002
797.0000      	12547.1    	85.97234
798.0000      	12531.3    	86.39550
799.0000      	12515.6    	86.14626
800.0000      	12500    	85.99688