File: data/Reflectance_measurements/Reflectance_2019_material/6_white/6_w_3 .txt
Unit Serial No : 240-IM0P2424-EU
Integration Time : 10 ms
Time Average: 10
Binning Average: 2
FFT Smoothing: 0%
Project Name : RPS900-R
Sample Name :  SM240-IMOP2424-EU
Measurement No : 1
Measurement Time : 06/03/2019   16:44:42

Wavelength(nm)	Wavenumber(1/cm)	Transmittance(%)
300.0000      	33333.3    	16.46424
301.0000      	33222.6    	16.02362
302.0000      	33112.6    	16.62942
303.0000      	33003.3    	16.23372
304.0000      	32894.7    	15.33973
305.0000      	32786.9    	15.03586
306.0000      	32679.7    	14.38772
307.0000      	32573.3    	13.44032
308.0000      	32467.5    	13.33211
309.0000      	32362.5    	13.88733
310.0000      	32258.1    	13.88559
311.0000      	32154.3    	13.53770
312.0000      	32051.3    	12.79186
313.0000      	31948.9    	12.84486
314.0000      	31847.1    	12.67216
315.0000      	31746    	12.35639
316.0000      	31645.6    	11.85525
317.0000      	31545.7    	11.79060
318.0000      	31446.5    	11.61662
319.0000      	31348    	10.90383
320.0000      	31250    	10.63027
321.0000      	31152.6    	10.62960
322.0000      	31055.9    	10.40102
323.0000      	30959.8    	10.23131
324.0000      	30864.2    	10.38885
325.0000      	30769.2    	9.91063
326.0000      	30674.8    	9.74446
327.0000      	30581    	9.62696
328.0000      	30487.8    	9.68159
329.0000      	30395.1    	9.53996
330.0000      	30303    	9.76718
331.0000      	30211.5    	10.00661
332.0000      	30120.5    	9.79628
333.0000      	30030    	9.43946
334.0000      	29940.1    	9.03850
335.0000      	29850.7    	9.15362
336.0000      	29761.9    	9.53309
337.0000      	29673.6    	9.63893
338.0000      	29585.8    	9.80979
339.0000      	29498.5    	9.87484
340.0000      	29411.8    	9.84555
341.0000      	29325.5    	9.56140
342.0000      	29239.8    	9.83648
343.0000      	29154.5    	10.00199
344.0000      	29069.8    	10.16692
345.0000      	28985.5    	10.35311
346.0000      	28901.7    	10.30231
347.0000      	28818.4    	10.44236
348.0000      	28735.6    	10.36259
349.0000      	28653.3    	10.53981
350.0000      	28571.4    	10.67784
351.0000      	28490    	10.83233
352.0000      	28409.1    	10.95936
353.0000      	28328.6    	11.36561
354.0000      	28248.6    	11.66190
355.0000      	28169    	12.08185
356.0000      	28089.9    	12.56183
357.0000      	28011.2    	13.12896
358.0000      	27933    	13.71295
359.0000      	27855.2    	14.05280
360.0000      	27777.8    	14.44289
361.0000      	27700.8    	14.65182
362.0000      	27624.3    	14.71218
363.0000      	27548.2    	15.03381
364.0000      	27472.5    	15.33004
365.0000      	27397.3    	15.86147
366.0000      	27322.4    	16.36486
367.0000      	27248    	16.50085
368.0000      	27173.9    	16.91154
369.0000      	27100.3    	17.46462
370.0000      	27027    	18.07694
371.0000      	26954.2    	18.22613
372.0000      	26881.7    	18.57565
373.0000      	26809.7    	18.81927
374.0000      	26738    	19.26594
375.0000      	26666.7    	19.82845
376.0000      	26595.7    	20.38796
377.0000      	26525.2    	21.01069
378.0000      	26455    	21.65637
379.0000      	26385.2    	22.35677
380.0000      	26315.8    	22.93703
381.0000      	26246.7    	23.69643
382.0000      	26178    	24.00423
383.0000      	26109.7    	24.78608
384.0000      	26041.7    	25.64433
385.0000      	25974    	26.30387
386.0000      	25906.7    	26.78510
387.0000      	25839.8    	27.39151
388.0000      	25773.2    	28.14036
389.0000      	25706.9    	28.62079
390.0000      	25641    	29.23907
391.0000      	25575.4    	29.97286
392.0000      	25510.2    	30.34991
393.0000      	25445.3    	30.97104
394.0000      	25380.7    	31.65541
395.0000      	25316.5    	32.31700
396.0000      	25252.5    	33.12562
397.0000      	25188.9    	33.99485
398.0000      	25125.6    	35.08057
399.0000      	25062.7    	36.25033
400.0000      	25000    	37.62317
401.0000      	24937.7    	38.58526
402.0000      	24875.6    	39.01785
403.0000      	24813.9    	40.12594
404.0000      	24752.5    	41.84760
405.0000      	24691.4    	43.71008
406.0000      	24630.5    	45.48159
407.0000      	24570    	47.44606
408.0000      	24509.8    	49.28784
409.0000      	24449.9    	51.17181
410.0000      	24390.2    	53.24072
411.0000      	24330.9    	55.29554
412.0000      	24271.8    	56.33438
413.0000      	24213.1    	58.18523
414.0000      	24154.6    	59.95020
415.0000      	24096.4    	61.63434
416.0000      	24038.5    	63.25471
417.0000      	23980.8    	64.46157
418.0000      	23923.4    	65.34428
419.0000      	23866.3    	65.84226
420.0000      	23809.5    	66.56529
421.0000      	23753    	67.05841
422.0000      	23696.7    	68.06561
423.0000      	23640.7    	68.65954
424.0000      	23584.9    	69.02659
425.0000      	23529.4    	69.63719
426.0000      	23474.2    	70.11845
427.0000      	23419.2    	70.91240
428.0000      	23364.5    	71.36044
429.0000      	23310    	71.94299
430.0000      	23255.8    	72.24163
431.0000      	23201.9    	73.01303
432.0000      	23148.1    	73.95409
433.0000      	23094.7    	74.69284
434.0000      	23041.5    	75.24351
435.0000      	22988.5    	75.69563
436.0000      	22935.8    	75.94870
437.0000      	22883.3    	76.13098
438.0000      	22831.1    	76.35480
439.0000      	22779    	76.81599
440.0000      	22727.3    	77.20190
441.0000      	22675.7    	77.06096
442.0000      	22624.4    	76.95848
443.0000      	22573.4    	76.74791
444.0000      	22522.5    	76.56421
445.0000      	22471.9    	76.21676
446.0000      	22421.5    	76.07307
447.0000      	22371.4    	75.54390
448.0000      	22321.4    	75.03776
449.0000      	22271.7    	74.45892
450.0000      	22222.2    	74.01743
451.0000      	22172.9    	73.84199
452.0000      	22123.9    	73.83557
453.0000      	22075.1    	73.81995
454.0000      	22026.4    	73.58215
455.0000      	21978    	73.46979
456.0000      	21929.8    	73.28766
457.0000      	21881.8    	73.22588
458.0000      	21834.1    	73.12099
459.0000      	21786.5    	72.84310
460.0000      	21739.1    	72.77297
461.0000      	21692    	72.86918
462.0000      	21645    	72.89876
463.0000      	21598.3    	72.83009
464.0000      	21551.7    	72.76667
465.0000      	21505.4    	72.58606
466.0000      	21459.2    	72.24274
467.0000      	21413.3    	72.09264
468.0000      	21367.5    	72.26012
469.0000      	21322    	72.50379
470.0000      	21276.6    	72.67043
471.0000      	21231.4    	72.72576
472.0000      	21186.4    	72.69869
473.0000      	21141.6    	72.73068
474.0000      	21097    	72.75985
475.0000      	21052.6    	72.83981
476.0000      	21008.4    	73.02526
477.0000      	20964.4    	73.12182
478.0000      	20920.5    	73.10049
479.0000      	20876.8    	73.03474
480.0000      	20833.3    	72.89053
481.0000      	20790    	72.73471
482.0000      	20746.9    	72.62840
483.0000      	20703.9    	72.71647
484.0000      	20661.2    	72.83456
485.0000      	20618.6    	72.82746
486.0000      	20576.1    	72.74483
487.0000      	20533.9    	72.80923
488.0000      	20491.8    	73.06241
489.0000      	20449.9    	73.11522
490.0000      	20408.2    	72.94173
491.0000      	20366.6    	72.90192
492.0000      	20325.2    	72.96004
493.0000      	20284    	73.12506
494.0000      	20242.9    	73.29044
495.0000      	20202    	73.32622
496.0000      	20161.3    	73.44412
497.0000      	20120.7    	73.48092
498.0000      	20080.3    	73.45731
499.0000      	20040.1    	73.43126
500.0000      	20000    	73.31243
501.0000      	19960.1    	73.34480
502.0000      	19920.3    	73.35327
503.0000      	19880.7    	73.27663
504.0000      	19841.3    	73.21136
505.0000      	19802    	73.20888
506.0000      	19762.8    	73.20057
507.0000      	19723.9    	73.06886
508.0000      	19685    	72.88029
509.0000      	19646.4    	72.63081
510.0000      	19607.8    	72.34408
511.0000      	19569.5    	72.10892
512.0000      	19531.2    	71.91102
513.0000      	19493.2    	71.84225
514.0000      	19455.3    	71.60322
515.0000      	19417.5    	71.27419
516.0000      	19379.8    	70.98635
517.0000      	19342.4    	70.68513
518.0000      	19305    	70.28043
519.0000      	19267.8    	70.12804
520.0000      	19230.8    	69.77296
521.0000      	19193.9    	69.48212
522.0000      	19157.1    	69.10165
523.0000      	19120.5    	68.80027
524.0000      	19084    	68.49651
525.0000      	19047.6    	68.16853
526.0000      	19011.4    	68.02549
527.0000      	18975.3    	67.62074
528.0000      	18939.4    	67.36504
529.0000      	18903.6    	67.12431
530.0000      	18867.9    	66.95742
531.0000      	18832.4    	66.86539
532.0000      	18797    	66.73700
533.0000      	18761.7    	66.66588
534.0000      	18726.6    	66.43929
535.0000      	18691.6    	66.38673
536.0000      	18656.7    	66.31045
537.0000      	18622    	66.09731
538.0000      	18587.4    	65.92037
539.0000      	18552.9    	65.88260
540.0000      	18518.5    	65.86526
541.0000      	18484.3    	65.88527
542.0000      	18450.2    	65.83115
543.0000      	18416.2    	65.76295
544.0000      	18382.4    	65.70543
545.0000      	18348.6    	65.68377
546.0000      	18315    	65.60339
547.0000      	18281.5    	65.47013
548.0000      	18248.2    	65.33040
549.0000      	18214.9    	65.17564
550.0000      	18181.8    	64.95975
551.0000      	18148.8    	64.84398
552.0000      	18115.9    	64.59919
553.0000      	18083.2    	64.34982
554.0000      	18050.5    	64.03101
555.0000      	18018    	63.69958
556.0000      	17985.6    	63.31237
557.0000      	17953.3    	62.92032
558.0000      	17921.1    	62.71251
559.0000      	17889.1    	62.33638
560.0000      	17857.1    	61.89500
561.0000      	17825.3    	61.45166
562.0000      	17793.6    	60.93539
563.0000      	17762    	60.56818
564.0000      	17730.5    	60.39338
565.0000      	17699.1    	60.11036
566.0000      	17667.8    	59.72923
567.0000      	17636.7    	59.32417
568.0000      	17605.6    	59.02863
569.0000      	17574.7    	58.85396
570.0000      	17543.9    	58.83883
571.0000      	17513.1    	58.75825
572.0000      	17482.5    	58.64276
573.0000      	17452    	58.62473
574.0000      	17421.6    	58.77172
575.0000      	17391.3    	58.93803
576.0000      	17361.1    	59.30906
577.0000      	17331    	59.74789
578.0000      	17301    	60.20662
579.0000      	17271.2    	60.87695
580.0000      	17241.4    	61.64875
581.0000      	17211.7    	62.02102
582.0000      	17182.1    	62.66391
583.0000      	17152.7    	63.27612
584.0000      	17123.3    	63.88378
585.0000      	17094    	64.40226
586.0000      	17064.8    	65.00558
587.0000      	17035.8    	65.27002
588.0000      	17006.8    	65.88432
589.0000      	16977.9    	66.30785
590.0000      	16949.2    	66.66072
591.0000      	16920.5    	66.99735
592.0000      	16891.9    	67.29377
593.0000      	16863.4    	67.44485
594.0000      	16835    	67.66135
595.0000      	16806.7    	67.88219
596.0000      	16778.5    	68.07972
597.0000      	16750.4    	68.17518
598.0000      	16722.4    	68.23804
599.0000      	16694.5    	68.28590
600.0000      	16666.7    	68.47044
601.0000      	16638.9    	68.59777
602.0000      	16611.3    	68.64104
603.0000      	16583.7    	68.61108
604.0000      	16556.3    	68.58855
605.0000      	16528.9    	68.57350
606.0000      	16501.7    	68.61153
607.0000      	16474.5    	68.64575
608.0000      	16447.4    	68.71957
609.0000      	16420.4    	68.72212
610.0000      	16393.4    	68.76204
611.0000      	16366.6    	68.74787
612.0000      	16339.9    	68.72259
613.0000      	16313.2    	68.63802
614.0000      	16286.6    	68.62958
615.0000      	16260.2    	68.57835
616.0000      	16233.8    	68.49675
617.0000      	16207.5    	68.51028
618.0000      	16181.2    	68.47156
619.0000      	16155.1    	68.43250
620.0000      	16129    	68.35782
621.0000      	16103.1    	68.33573
622.0000      	16077.2    	68.26978
623.0000      	16051.4    	68.44365
624.0000      	16025.6    	68.59370
625.0000      	16000    	68.58572
626.0000      	15974.4    	68.58068
627.0000      	15949    	68.59534
628.0000      	15923.6    	68.75149
629.0000      	15898.3    	68.77509
630.0000      	15873    	68.85519
631.0000      	15847.9    	69.00393
632.0000      	15822.8    	69.10844
633.0000      	15797.8    	69.37399
634.0000      	15772.9    	69.58137
635.0000      	15748    	69.74016
636.0000      	15723.3    	69.86739
637.0000      	15698.6    	70.01955
638.0000      	15674    	70.40430
639.0000      	15649.5    	70.66139
640.0000      	15625    	70.90495
641.0000      	15600.6    	71.24141
642.0000      	15576.3    	71.40657
643.0000      	15552.1    	71.76518
644.0000      	15528    	72.10925
645.0000      	15503.9    	72.48355
646.0000      	15479.9    	72.96099
647.0000      	15456    	73.15954
648.0000      	15432.1    	73.47502
649.0000      	15408.3    	73.78424
650.0000      	15384.6    	74.19456
651.0000      	15361    	74.61537
652.0000      	15337.4    	74.97324
653.0000      	15313.9    	75.24277
654.0000      	15290.5    	75.80733
655.0000      	15267.2    	76.27516
656.0000      	15243.9    	76.71116
657.0000      	15220.7    	77.07745
658.0000      	15197.6    	77.30910
659.0000      	15174.5    	77.64412
660.0000      	15151.5    	77.82553
661.0000      	15128.6    	78.09307
662.0000      	15105.7    	78.50431
663.0000      	15083    	78.66772
664.0000      	15060.2    	78.62128
665.0000      	15037.6    	78.66379
666.0000      	15015    	78.96703
667.0000      	14992.5    	79.12984
668.0000      	14970.1    	79.18705
669.0000      	14947.7    	79.17774
670.0000      	14925.4    	79.31171
671.0000      	14903.1    	79.48696
672.0000      	14881    	79.67390
673.0000      	14858.8    	79.77145
674.0000      	14836.8    	79.69867
675.0000      	14814.8    	79.38547
676.0000      	14792.9    	79.12576
677.0000      	14771    	78.99308
678.0000      	14749.3    	78.90919
679.0000      	14727.5    	78.71871
680.0000      	14705.9    	78.64227
681.0000      	14684.3    	78.60987
682.0000      	14662.8    	78.48174
683.0000      	14641.3    	78.40684
684.0000      	14619.9    	78.08743
685.0000      	14598.5    	77.76232
686.0000      	14577.3    	77.64316
687.0000      	14556    	77.59081
688.0000      	14534.9    	77.50072
689.0000      	14513.8    	77.32625
690.0000      	14492.8    	77.30831
691.0000      	14471.8    	77.25743
692.0000      	14450.9    	77.40285
693.0000      	14430    	77.53880
694.0000      	14409.2    	77.68949
695.0000      	14388.5    	77.70913
696.0000      	14367.8    	77.68210
697.0000      	14347.2    	77.94154
698.0000      	14326.6    	78.00188
699.0000      	14306.2    	78.11508
700.0000      	14285.7    	78.03588
701.0000      	14265.3    	78.07343
702.0000      	14245    	78.07082
703.0000      	14224.8    	78.06376
704.0000      	14204.5    	77.87370
705.0000      	14184.4    	77.90186
706.0000      	14164.3    	78.13796
707.0000      	14144.3    	78.32870
708.0000      	14124.3    	78.33678
709.0000      	14104.4    	78.24934
710.0000      	14084.5    	77.94649
711.0000      	14064.7    	77.81594
712.0000      	14044.9    	77.90842
713.0000      	14025.2    	77.97670
714.0000      	14005.6    	77.85415
715.0000      	13986    	77.80785
716.0000      	13966.5    	77.89149
717.0000      	13947    	78.07981
718.0000      	13927.6    	78.10164
719.0000      	13908.2    	78.18420
720.0000      	13888.9    	78.04395
721.0000      	13869.6    	78.22897
722.0000      	13850.4    	78.38894
723.0000      	13831.3    	78.55023
724.0000      	13812.2    	78.51347
725.0000      	13793.1    	78.71152
726.0000      	13774.1    	78.64420
727.0000      	13755.2    	78.75454
728.0000      	13736.3    	78.74729
729.0000      	13717.4    	78.89429
730.0000      	13698.6    	78.71703
731.0000      	13679.9    	78.69308
732.0000      	13661.2    	78.72823
733.0000      	13642.6    	78.92686
734.0000      	13624    	79.08411
735.0000      	13605.4    	79.24390
736.0000      	13587    	79.46970
737.0000      	13568.5    	79.62122
738.0000      	13550.1    	80.11599
739.0000      	13531.8    	80.39959
740.0000      	13513.5    	80.59900
741.0000      	13495.3    	80.65630
742.0000      	13477.1    	80.60510
743.0000      	13459    	80.71013
744.0000      	13440.9    	80.92743
745.0000      	13422.8    	81.30748
746.0000      	13404.8    	81.43800
747.0000      	13386.9    	81.57318
748.0000      	13369    	81.98034
749.0000      	13351.1    	82.47723
750.0000      	13333.3    	82.80936
751.0000      	13315.6    	82.98144
752.0000      	13297.9    	83.36942
753.0000      	13280.2    	83.57870
754.0000      	13262.6    	83.84578
755.0000      	13245    	84.12265
756.0000      	13227.5    	84.09074
757.0000      	13210    	84.02872
758.0000      	13192.6    	84.12193
759.0000      	13175.2    	84.25866
760.0000      	13157.9    	84.21657
761.0000      	13140.6    	84.21017
762.0000      	13123.4    	84.54747
763.0000      	13106.2    	84.53201
764.0000      	13089    	84.27521
765.0000      	13071.9    	84.21551
766.0000      	13054.8    	84.37992
767.0000      	13037.8    	84.47833
768.0000      	13020.8    	84.60698
769.0000      	13003.9    	84.93079
770.0000      	12987    	85.06191
771.0000      	12970.2    	85.17191
772.0000      	12953.4    	85.30147
773.0000      	12936.6    	85.46484
774.0000      	12919.9    	85.36272
775.0000      	12903.2    	85.38029
776.0000      	12886.6    	85.72330
777.0000      	12870    	85.86616
778.0000      	12853.5    	85.29344
779.0000      	12837    	85.21793
780.0000      	12820.5    	85.56268
781.0000      	12804.1    	85.81760
782.0000      	12787.7    	85.60603
783.0000      	12771.4    	85.22054
784.0000      	12755.1    	85.13925
785.0000      	12738.9    	85.10103
786.0000      	12722.6    	85.14016
787.0000      	12706.5    	85.27590
788.0000      	12690.4    	85.41672
789.0000      	12674.3    	85.45950
790.0000      	12658.2    	85.00404
791.0000      	12642.2    	84.89037
792.0000      	12626.3    	84.97363
793.0000      	12610.3    	85.28503
794.0000      	12594.5    	85.54129
795.0000      	12578.6    	85.73158
796.0000      	12562.8    	85.81773
797.0000      	12547.1    	85.87830
798.0000      	12531.3    	85.90208
799.0000      	12515.6    	85.53780
800.0000      	12500    	85.27032