File: data/Reflectance_measurements/Reflectance_2019_material/6_white/6_w_2.txt
Unit Serial No : 240-IM0P2424-EU
Integration Time : 10 ms
Time Average: 10
Binning Average: 2
FFT Smoothing: 0%
Project Name : RPS900-R
Sample Name :  SM240-IMOP2424-EU
Measurement No : 1
Measurement Time : 06/03/2019   16:44:30

Wavelength(nm)	Wavenumber(1/cm)	Transmittance(%)
300.0000      	33333.3    	17.82792
301.0000      	33222.6    	18.48393
302.0000      	33112.6    	18.26891
303.0000      	33003.3    	17.34379
304.0000      	32894.7    	16.46695
305.0000      	32786.9    	16.25699
306.0000      	32679.7    	15.65518
307.0000      	32573.3    	15.00998
308.0000      	32467.5    	13.96382
309.0000      	32362.5    	13.95561
310.0000      	32258.1    	14.06584
311.0000      	32154.3    	13.98764
312.0000      	32051.3    	12.66581
313.0000      	31948.9    	12.41892
314.0000      	31847.1    	12.09445
315.0000      	31746    	11.93461
316.0000      	31645.6    	12.15494
317.0000      	31545.7    	12.05610
318.0000      	31446.5    	11.87235
319.0000      	31348    	10.82484
320.0000      	31250    	10.27174
321.0000      	31152.6    	10.14829
322.0000      	31055.9    	10.71655
323.0000      	30959.8    	11.41628
324.0000      	30864.2    	11.20655
325.0000      	30769.2    	10.25174
326.0000      	30674.8    	9.78398
327.0000      	30581    	9.60091
328.0000      	30487.8    	9.70054
329.0000      	30395.1    	9.81495
330.0000      	30303    	9.48040
331.0000      	30211.5    	9.65581
332.0000      	30120.5    	9.86165
333.0000      	30030    	9.67720
334.0000      	29940.1    	9.38269
335.0000      	29850.7    	9.33777
336.0000      	29761.9    	9.34222
337.0000      	29673.6    	9.22454
338.0000      	29585.8    	9.72380
339.0000      	29498.5    	9.79319
340.0000      	29411.8    	9.88075
341.0000      	29325.5    	9.72263
342.0000      	29239.8    	10.10046
343.0000      	29154.5    	9.95349
344.0000      	29069.8    	10.03731
345.0000      	28985.5    	10.25501
346.0000      	28901.7    	10.24023
347.0000      	28818.4    	10.35196
348.0000      	28735.6    	10.30592
349.0000      	28653.3    	10.55596
350.0000      	28571.4    	10.84072
351.0000      	28490    	11.43167
352.0000      	28409.1    	11.40506
353.0000      	28328.6    	11.55732
354.0000      	28248.6    	11.77577
355.0000      	28169    	12.18963
356.0000      	28089.9    	12.45600
357.0000      	28011.2    	12.81692
358.0000      	27933    	13.24522
359.0000      	27855.2    	13.43934
360.0000      	27777.8    	13.93345
361.0000      	27700.8    	14.50243
362.0000      	27624.3    	14.93828
363.0000      	27548.2    	15.31172
364.0000      	27472.5    	15.42208
365.0000      	27397.3    	15.81893
366.0000      	27322.4    	16.38793
367.0000      	27248    	16.58738
368.0000      	27173.9    	16.98807
369.0000      	27100.3    	17.45771
370.0000      	27027    	17.96984
371.0000      	26954.2    	18.04869
372.0000      	26881.7    	18.28983
373.0000      	26809.7    	18.68915
374.0000      	26738    	19.13696
375.0000      	26666.7    	19.52017
376.0000      	26595.7    	20.05700
377.0000      	26525.2    	21.10445
378.0000      	26455    	21.92768
379.0000      	26385.2    	22.44368
380.0000      	26315.8    	23.02721
381.0000      	26246.7    	23.79521
382.0000      	26178    	24.12502
383.0000      	26109.7    	24.76175
384.0000      	26041.7    	25.35464
385.0000      	25974    	26.01254
386.0000      	25906.7    	26.64398
387.0000      	25839.8    	27.19500
388.0000      	25773.2    	27.94105
389.0000      	25706.9    	28.52595
390.0000      	25641    	29.23419
391.0000      	25575.4    	29.88553
392.0000      	25510.2    	30.23036
393.0000      	25445.3    	30.84515
394.0000      	25380.7    	31.62360
395.0000      	25316.5    	32.33804
396.0000      	25252.5    	33.07900
397.0000      	25188.9    	33.85963
398.0000      	25125.6    	34.83020
399.0000      	25062.7    	35.97316
400.0000      	25000    	37.07164
401.0000      	24937.7    	38.15974
402.0000      	24875.6    	38.71554
403.0000      	24813.9    	40.14702
404.0000      	24752.5    	41.79902
405.0000      	24691.4    	43.52335
406.0000      	24630.5    	45.08807
407.0000      	24570    	46.92195
408.0000      	24509.8    	48.87041
409.0000      	24449.9    	50.94012
410.0000      	24390.2    	53.12143
411.0000      	24330.9    	55.37951
412.0000      	24271.8    	56.46797
413.0000      	24213.1    	58.47169
414.0000      	24154.6    	60.11506
415.0000      	24096.4    	61.68680
416.0000      	24038.5    	63.15138
417.0000      	23980.8    	64.41947
418.0000      	23923.4    	65.37540
419.0000      	23866.3    	65.98357
420.0000      	23809.5    	66.60737
421.0000      	23753    	67.04719
422.0000      	23696.7    	67.94859
423.0000      	23640.7    	68.69375
424.0000      	23584.9    	69.23098
425.0000      	23529.4    	69.98170
426.0000      	23474.2    	70.44122
427.0000      	23419.2    	71.16786
428.0000      	23364.5    	71.48855
429.0000      	23310    	71.85990
430.0000      	23255.8    	72.11474
431.0000      	23201.9    	72.91251
432.0000      	23148.1    	73.93252
433.0000      	23094.7    	74.88546
434.0000      	23041.5    	75.51093
435.0000      	22988.5    	76.04457
436.0000      	22935.8    	76.29569
437.0000      	22883.3    	76.55181
438.0000      	22831.1    	76.65302
439.0000      	22779    	77.08717
440.0000      	22727.3    	77.45389
441.0000      	22675.7    	77.46624
442.0000      	22624.4    	77.30264
443.0000      	22573.4    	77.21645
444.0000      	22522.5    	77.17849
445.0000      	22471.9    	76.99004
446.0000      	22421.5    	76.76501
447.0000      	22371.4    	76.19431
448.0000      	22321.4    	75.47198
449.0000      	22271.7    	74.81938
450.0000      	22222.2    	74.29100
451.0000      	22172.9    	74.18018
452.0000      	22123.9    	74.12602
453.0000      	22075.1    	74.05492
454.0000      	22026.4    	73.83563
455.0000      	21978    	73.73982
456.0000      	21929.8    	73.49410
457.0000      	21881.8    	73.25003
458.0000      	21834.1    	73.08846
459.0000      	21786.5    	73.11790
460.0000      	21739.1    	73.02348
461.0000      	21692    	72.93331
462.0000      	21645    	72.86028
463.0000      	21598.3    	72.72626
464.0000      	21551.7    	72.65909
465.0000      	21505.4    	72.60855
466.0000      	21459.2    	72.51489
467.0000      	21413.3    	72.44015
468.0000      	21367.5    	72.49908
469.0000      	21322    	72.56728
470.0000      	21276.6    	72.67413
471.0000      	21231.4    	72.89323
472.0000      	21186.4    	73.12822
473.0000      	21141.6    	73.17118
474.0000      	21097    	73.05907
475.0000      	21052.6    	73.15189
476.0000      	21008.4    	73.31259
477.0000      	20964.4    	73.38846
478.0000      	20920.5    	73.32883
479.0000      	20876.8    	73.31242
480.0000      	20833.3    	73.18100
481.0000      	20790    	73.04181
482.0000      	20746.9    	72.94448
483.0000      	20703.9    	73.03885
484.0000      	20661.2    	73.08929
485.0000      	20618.6    	73.13881
486.0000      	20576.1    	73.16429
487.0000      	20533.9    	73.12779
488.0000      	20491.8    	73.20667
489.0000      	20449.9    	73.24587
490.0000      	20408.2    	73.17000
491.0000      	20366.6    	73.10097
492.0000      	20325.2    	73.12799
493.0000      	20284    	73.22694
494.0000      	20242.9    	73.37935
495.0000      	20202    	73.42743
496.0000      	20161.3    	73.49239
497.0000      	20120.7    	73.53494
498.0000      	20080.3    	73.59840
499.0000      	20040.1    	73.60467
500.0000      	20000    	73.64191
501.0000      	19960.1    	73.65765
502.0000      	19920.3    	73.65469
503.0000      	19880.7    	73.56548
504.0000      	19841.3    	73.51291
505.0000      	19802    	73.40253
506.0000      	19762.8    	73.34758
507.0000      	19723.9    	73.23364
508.0000      	19685    	73.05025
509.0000      	19646.4    	72.78898
510.0000      	19607.8    	72.60163
511.0000      	19569.5    	72.49154
512.0000      	19531.2    	72.21712
513.0000      	19493.2    	72.09280
514.0000      	19455.3    	71.84328
515.0000      	19417.5    	71.60182
516.0000      	19379.8    	71.27878
517.0000      	19342.4    	70.88788
518.0000      	19305    	70.46046
519.0000      	19267.8    	70.32111
520.0000      	19230.8    	70.01750
521.0000      	19193.9    	69.78496
522.0000      	19157.1    	69.42785
523.0000      	19120.5    	69.07829
524.0000      	19084    	68.67303
525.0000      	19047.6    	68.40665
526.0000      	19011.4    	68.25511
527.0000      	18975.3    	67.91310
528.0000      	18939.4    	67.54343
529.0000      	18903.6    	67.36019
530.0000      	18867.9    	67.19621
531.0000      	18832.4    	67.00981
532.0000      	18797    	66.89713
533.0000      	18761.7    	66.84899
534.0000      	18726.6    	66.66595
535.0000      	18691.6    	66.50047
536.0000      	18656.7    	66.36641
537.0000      	18622    	66.24627
538.0000      	18587.4    	66.11095
539.0000      	18552.9    	66.11366
540.0000      	18518.5    	66.11486
541.0000      	18484.3    	66.08136
542.0000      	18450.2    	65.94331
543.0000      	18416.2    	65.83256
544.0000      	18382.4    	65.77996
545.0000      	18348.6    	65.74135
546.0000      	18315    	65.63564
547.0000      	18281.5    	65.48279
548.0000      	18248.2    	65.31852
549.0000      	18214.9    	65.18519
550.0000      	18181.8    	65.09203
551.0000      	18148.8    	65.02056
552.0000      	18115.9    	64.76263
553.0000      	18083.2    	64.46682
554.0000      	18050.5    	64.17745
555.0000      	18018    	63.90894
556.0000      	17985.6    	63.56503
557.0000      	17953.3    	63.16579
558.0000      	17921.1    	62.95967
559.0000      	17889.1    	62.48687
560.0000      	17857.1    	62.04112
561.0000      	17825.3    	61.58286
562.0000      	17793.6    	61.15841
563.0000      	17762    	60.68882
564.0000      	17730.5    	60.47700
565.0000      	17699.1    	60.06599
566.0000      	17667.8    	59.68051
567.0000      	17636.7    	59.36805
568.0000      	17605.6    	59.14220
569.0000      	17574.7    	58.90788
570.0000      	17543.9    	58.81617
571.0000      	17513.1    	58.65315
572.0000      	17482.5    	58.65219
573.0000      	17452    	58.76049
574.0000      	17421.6    	58.99812
575.0000      	17391.3    	59.16787
576.0000      	17361.1    	59.49906
577.0000      	17331    	59.93399
578.0000      	17301    	60.37574
579.0000      	17271.2    	60.98289
580.0000      	17241.4    	61.72218
581.0000      	17211.7    	62.10152
582.0000      	17182.1    	62.81741
583.0000      	17152.7    	63.47715
584.0000      	17123.3    	64.13221
585.0000      	17094    	64.68155
586.0000      	17064.8    	65.27139
587.0000      	17035.8    	65.49329
588.0000      	17006.8    	65.99840
589.0000      	16977.9    	66.41045
590.0000      	16949.2    	66.81537
591.0000      	16920.5    	67.23060
592.0000      	16891.9    	67.50156
593.0000      	16863.4    	67.62087
594.0000      	16835    	67.75578
595.0000      	16806.7    	68.00993
596.0000      	16778.5    	68.25656
597.0000      	16750.4    	68.34957
598.0000      	16722.4    	68.47718
599.0000      	16694.5    	68.52676
600.0000      	16666.7    	68.73044
601.0000      	16638.9    	68.76936
602.0000      	16611.3    	68.77362
603.0000      	16583.7    	68.73972
604.0000      	16556.3    	68.77136
605.0000      	16528.9    	68.85921
606.0000      	16501.7    	68.92581
607.0000      	16474.5    	68.86237
608.0000      	16447.4    	68.79932
609.0000      	16420.4    	68.81785
610.0000      	16393.4    	68.86137
611.0000      	16366.6    	68.83448
612.0000      	16339.9    	68.81654
613.0000      	16313.2    	68.72665
614.0000      	16286.6    	68.68452
615.0000      	16260.2    	68.66534
616.0000      	16233.8    	68.66525
617.0000      	16207.5    	68.71535
618.0000      	16181.2    	68.62408
619.0000      	16155.1    	68.58257
620.0000      	16129    	68.49631
621.0000      	16103.1    	68.49957
622.0000      	16077.2    	68.48534
623.0000      	16051.4    	68.63082
624.0000      	16025.6    	68.71708
625.0000      	16000    	68.72092
626.0000      	15974.4    	68.71531
627.0000      	15949    	68.74322
628.0000      	15923.6    	68.86057
629.0000      	15898.3    	68.90607
630.0000      	15873    	69.07207
631.0000      	15847.9    	69.27821
632.0000      	15822.8    	69.35005
633.0000      	15797.8    	69.51650
634.0000      	15772.9    	69.72733
635.0000      	15748    	69.91885
636.0000      	15723.3    	70.12621
637.0000      	15698.6    	70.28601
638.0000      	15674    	70.67653
639.0000      	15649.5    	70.97038
640.0000      	15625    	71.30798
641.0000      	15600.6    	71.68161
642.0000      	15576.3    	71.80003
643.0000      	15552.1    	72.06426
644.0000      	15528    	72.34219
645.0000      	15503.9    	72.71835
646.0000      	15479.9    	73.23283
647.0000      	15456    	73.52380
648.0000      	15432.1    	73.94567
649.0000      	15408.3    	74.21839
650.0000      	15384.6    	74.54749
651.0000      	15361    	75.01099
652.0000      	15337.4    	75.41603
653.0000      	15313.9    	75.61619
654.0000      	15290.5    	75.99673
655.0000      	15267.2    	76.43554
656.0000      	15243.9    	76.91723
657.0000      	15220.7    	77.37787
658.0000      	15197.6    	77.51787
659.0000      	15174.5    	77.78430
660.0000      	15151.5    	78.07911
661.0000      	15128.6    	78.41343
662.0000      	15105.7    	78.71076
663.0000      	15083    	78.78168
664.0000      	15060.2    	78.94451
665.0000      	15037.6    	78.99180
666.0000      	15015    	79.11044
667.0000      	14992.5    	79.28656
668.0000      	14970.1    	79.49311
669.0000      	14947.7    	79.51706
670.0000      	14925.4    	79.58481
671.0000      	14903.1    	79.57456
672.0000      	14881    	79.59875
673.0000      	14858.8    	79.56796
674.0000      	14836.8    	79.63350
675.0000      	14814.8    	79.63522
676.0000      	14792.9    	79.68167
677.0000      	14771    	79.56113
678.0000      	14749.3    	79.44239
679.0000      	14727.5    	79.25382
680.0000      	14705.9    	79.04909
681.0000      	14684.3    	78.89336
682.0000      	14662.8    	78.75680
683.0000      	14641.3    	78.74925
684.0000      	14619.9    	78.55578
685.0000      	14598.5    	78.15125
686.0000      	14577.3    	77.99567
687.0000      	14556    	77.90725
688.0000      	14534.9    	77.83825
689.0000      	14513.8    	77.45416
690.0000      	14492.8    	77.46346
691.0000      	14471.8    	77.62135
692.0000      	14450.9    	77.90301
693.0000      	14430    	77.97456
694.0000      	14409.2    	78.05388
695.0000      	14388.5    	78.03320
696.0000      	14367.8    	78.00390
697.0000      	14347.2    	78.01076
698.0000      	14326.6    	78.11508
699.0000      	14306.2    	78.26884
700.0000      	14285.7    	78.48331
701.0000      	14265.3    	78.51634
702.0000      	14245    	78.50730
703.0000      	14224.8    	78.55741
704.0000      	14204.5    	78.55676
705.0000      	14184.4    	78.63467
706.0000      	14164.3    	78.53172
707.0000      	14144.3    	78.51723
708.0000      	14124.3    	78.50401
709.0000      	14104.4    	78.37244
710.0000      	14084.5    	78.00073
711.0000      	14064.7    	77.91227
712.0000      	14044.9    	78.13623
713.0000      	14025.2    	78.22222
714.0000      	14005.6    	77.99468
715.0000      	13986    	77.82330
716.0000      	13966.5    	77.94281
717.0000      	13947    	78.13438
718.0000      	13927.6    	78.17020
719.0000      	13908.2    	78.31824
720.0000      	13888.9    	78.34194
721.0000      	13869.6    	78.41843
722.0000      	13850.4    	78.45059
723.0000      	13831.3    	78.72795
724.0000      	13812.2    	78.88782
725.0000      	13793.1    	79.10267
726.0000      	13774.1    	79.08541
727.0000      	13755.2    	79.18762
728.0000      	13736.3    	79.31578
729.0000      	13717.4    	79.38837
730.0000      	13698.6    	79.14719
731.0000      	13679.9    	79.19533
732.0000      	13661.2    	79.38824
733.0000      	13642.6    	79.83447
734.0000      	13624    	79.82188
735.0000      	13605.4    	79.77877
736.0000      	13587    	79.69601
737.0000      	13568.5    	79.75368
738.0000      	13550.1    	80.07011
739.0000      	13531.8    	80.36903
740.0000      	13513.5    	80.63161
741.0000      	13495.3    	80.79296
742.0000      	13477.1    	80.75932
743.0000      	13459    	81.02747
744.0000      	13440.9    	81.40601
745.0000      	13422.8    	81.88505
746.0000      	13404.8    	81.89217
747.0000      	13386.9    	81.97156
748.0000      	13369    	82.25468
749.0000      	13351.1    	82.78882
750.0000      	13333.3    	82.98964
751.0000      	13315.6    	83.10069
752.0000      	13297.9    	83.23688
753.0000      	13280.2    	83.32162
754.0000      	13262.6    	83.35447
755.0000      	13245    	83.75550
756.0000      	13227.5    	84.04645
757.0000      	13210    	84.58447
758.0000      	13192.6    	84.70226
759.0000      	13175.2    	84.69426
760.0000      	13157.9    	84.93879
761.0000      	13140.6    	85.08273
762.0000      	13123.4    	85.29597
763.0000      	13106.2    	84.97802
764.0000      	13089    	84.41482
765.0000      	13071.9    	84.33997
766.0000      	13054.8    	84.30585
767.0000      	13037.8    	84.44280
768.0000      	13020.8    	84.67158
769.0000      	13003.9    	85.20904
770.0000      	12987    	85.33873
771.0000      	12970.2    	85.58328
772.0000      	12953.4    	85.74336
773.0000      	12936.6    	85.70411
774.0000      	12919.9    	85.54719
775.0000      	12903.2    	85.75094
776.0000      	12886.6    	86.33506
777.0000      	12870    	86.35625
778.0000      	12853.5    	86.12445
779.0000      	12837    	86.10374
780.0000      	12820.5    	86.65385
781.0000      	12804.1    	86.76737
782.0000      	12787.7    	86.65063
783.0000      	12771.4    	86.07801
784.0000      	12755.1    	85.89561
785.0000      	12738.9    	85.70734
786.0000      	12722.6    	85.99180
787.0000      	12706.5    	86.40033
788.0000      	12690.4    	86.56760
789.0000      	12674.3    	86.33550
790.0000      	12658.2    	85.79878
791.0000      	12642.2    	85.24421
792.0000      	12626.3    	85.19330
793.0000      	12610.3    	85.32697
794.0000      	12594.5    	85.78267
795.0000      	12578.6    	85.89068
796.0000      	12562.8    	85.85406
797.0000      	12547.1    	85.94158
798.0000      	12531.3    	85.95260
799.0000      	12515.6    	85.90630
800.0000      	12500    	85.90231