File: data/Reflectance_measurements/Reflectance_2019_material/87/87.txt
Unit Serial No : 240-IM0P2424-EU
Integration Time : 10 ms
Time Average: 10
Binning Average: 2
FFT Smoothing: 0%
Project Name : RPS900-R
Sample Name :  SM240-IMOP2424-EU
Measurement No : 1
Measurement Time : 06/03/2019   14:32:41

Wavelength(nm)	Wavenumber(1/cm)	Transmittance(%)
300.0000      	33333.3    	7.42838
301.0000      	33222.6    	7.81846
302.0000      	33112.6    	6.87927
303.0000      	33003.3    	6.39663
304.0000      	32894.7    	5.87303
305.0000      	32786.9    	6.22020
306.0000      	32679.7    	6.34453
307.0000      	32573.3    	6.01518
308.0000      	32467.5    	6.08684
309.0000      	32362.5    	5.65642
310.0000      	32258.1    	5.64748
311.0000      	32154.3    	6.09084
312.0000      	32051.3    	6.51409
313.0000      	31948.9    	6.69385
314.0000      	31847.1    	6.70701
315.0000      	31746    	5.79981
316.0000      	31645.6    	5.42041
317.0000      	31545.7    	5.49461
318.0000      	31446.5    	5.41574
319.0000      	31348    	5.01958
320.0000      	31250    	4.71885
321.0000      	31152.6    	4.66360
322.0000      	31055.9    	5.31185
323.0000      	30959.8    	5.38068
324.0000      	30864.2    	5.15860
325.0000      	30769.2    	4.56296
326.0000      	30674.8    	4.72280
327.0000      	30581    	5.16841
328.0000      	30487.8    	5.13122
329.0000      	30395.1    	5.50503
330.0000      	30303    	5.56711
331.0000      	30211.5    	5.20030
332.0000      	30120.5    	5.03357
333.0000      	30030    	5.01660
334.0000      	29940.1    	5.20586
335.0000      	29850.7    	4.94332
336.0000      	29761.9    	4.85143
337.0000      	29673.6    	4.75024
338.0000      	29585.8    	4.81577
339.0000      	29498.5    	4.98968
340.0000      	29411.8    	5.20243
341.0000      	29325.5    	4.81677
342.0000      	29239.8    	4.79760
343.0000      	29154.5    	4.87448
344.0000      	29069.8    	4.81661
345.0000      	28985.5    	4.76445
346.0000      	28901.7    	4.96682
347.0000      	28818.4    	5.04423
348.0000      	28735.6    	5.02299
349.0000      	28653.3    	4.85152
350.0000      	28571.4    	4.65096
351.0000      	28490    	4.75439
352.0000      	28409.1    	4.61178
353.0000      	28328.6    	4.58421
354.0000      	28248.6    	4.65544
355.0000      	28169    	4.82693
356.0000      	28089.9    	4.96232
357.0000      	28011.2    	4.94010
358.0000      	27933    	4.97762
359.0000      	27855.2    	4.95597
360.0000      	27777.8    	4.82460
361.0000      	27700.8    	4.99832
362.0000      	27624.3    	4.72144
363.0000      	27548.2    	4.52693
364.0000      	27472.5    	4.42349
365.0000      	27397.3    	4.58365
366.0000      	27322.4    	4.75153
367.0000      	27248    	4.68845
368.0000      	27173.9    	4.69666
369.0000      	27100.3    	4.66337
370.0000      	27027    	4.69464
371.0000      	26954.2    	4.69405
372.0000      	26881.7    	4.66688
373.0000      	26809.7    	4.89236
374.0000      	26738    	4.83250
375.0000      	26666.7    	4.76167
376.0000      	26595.7    	4.62393
377.0000      	26525.2    	4.76321
378.0000      	26455    	5.05935
379.0000      	26385.2    	5.17831
380.0000      	26315.8    	5.02913
381.0000      	26246.7    	4.83642
382.0000      	26178    	4.85559
383.0000      	26109.7    	4.97896
384.0000      	26041.7    	4.95384
385.0000      	25974    	5.04091
386.0000      	25906.7    	4.98324
387.0000      	25839.8    	5.08014
388.0000      	25773.2    	5.14247
389.0000      	25706.9    	5.23536
390.0000      	25641    	5.27223
391.0000      	25575.4    	5.26928
392.0000      	25510.2    	5.30128
393.0000      	25445.3    	5.24019
394.0000      	25380.7    	5.28940
395.0000      	25316.5    	5.37339
396.0000      	25252.5    	5.37189
397.0000      	25188.9    	5.46394
398.0000      	25125.6    	5.42496
399.0000      	25062.7    	5.41810
400.0000      	25000    	5.51715
401.0000      	24937.7    	5.74549
402.0000      	24875.6    	5.73427
403.0000      	24813.9    	5.71647
404.0000      	24752.5    	5.72750
405.0000      	24691.4    	5.73080
406.0000      	24630.5    	5.81273
407.0000      	24570    	5.96732
408.0000      	24509.8    	6.06661
409.0000      	24449.9    	5.93868
410.0000      	24390.2    	5.83515
411.0000      	24330.9    	5.88397
412.0000      	24271.8    	5.94644
413.0000      	24213.1    	5.96969
414.0000      	24154.6    	6.02853
415.0000      	24096.4    	6.06100
416.0000      	24038.5    	6.04195
417.0000      	23980.8    	6.06856
418.0000      	23923.4    	6.10422
419.0000      	23866.3    	6.07860
420.0000      	23809.5    	6.07895
421.0000      	23753    	6.02348
422.0000      	23696.7    	6.06204
423.0000      	23640.7    	6.15765
424.0000      	23584.9    	6.13319
425.0000      	23529.4    	6.15414
426.0000      	23474.2    	6.24467
427.0000      	23419.2    	6.21522
428.0000      	23364.5    	6.14304
429.0000      	23310    	6.11089
430.0000      	23255.8    	6.07705
431.0000      	23201.9    	6.21738
432.0000      	23148.1    	6.51215
433.0000      	23094.7    	6.59620
434.0000      	23041.5    	6.53951
435.0000      	22988.5    	6.41961
436.0000      	22935.8    	6.44955
437.0000      	22883.3    	6.52157
438.0000      	22831.1    	6.52196
439.0000      	22779    	6.52312
440.0000      	22727.3    	6.58517
441.0000      	22675.7    	6.62408
442.0000      	22624.4    	6.63245
443.0000      	22573.4    	6.69198
444.0000      	22522.5    	6.78525
445.0000      	22471.9    	6.87574
446.0000      	22421.5    	6.85092
447.0000      	22371.4    	6.75544
448.0000      	22321.4    	6.73206
449.0000      	22271.7    	6.75956
450.0000      	22222.2    	6.73410
451.0000      	22172.9    	6.80286
452.0000      	22123.9    	6.86186
453.0000      	22075.1    	6.92527
454.0000      	22026.4    	7.06857
455.0000      	21978    	7.07262
456.0000      	21929.8    	7.08833
457.0000      	21881.8    	7.13204
458.0000      	21834.1    	7.15752
459.0000      	21786.5    	7.14631
460.0000      	21739.1    	7.21805
461.0000      	21692    	7.31484
462.0000      	21645    	7.36316
463.0000      	21598.3    	7.36587
464.0000      	21551.7    	7.36956
465.0000      	21505.4    	7.44499
466.0000      	21459.2    	7.46652
467.0000      	21413.3    	7.50638
468.0000      	21367.5    	7.57172
469.0000      	21322    	7.60205
470.0000      	21276.6    	7.61555
471.0000      	21231.4    	7.62776
472.0000      	21186.4    	7.65205
473.0000      	21141.6    	7.75773
474.0000      	21097    	7.82738
475.0000      	21052.6    	7.90145
476.0000      	21008.4    	7.98255
477.0000      	20964.4    	8.07097
478.0000      	20920.5    	8.11360
479.0000      	20876.8    	8.20339
480.0000      	20833.3    	8.25560
481.0000      	20790    	8.30757
482.0000      	20746.9    	8.33735
483.0000      	20703.9    	8.39422
484.0000      	20661.2    	8.45703
485.0000      	20618.6    	8.50125
486.0000      	20576.1    	8.55284
487.0000      	20533.9    	8.63853
488.0000      	20491.8    	8.71335
489.0000      	20449.9    	8.75622
490.0000      	20408.2    	8.81003
491.0000      	20366.6    	8.92703
492.0000      	20325.2    	8.95610
493.0000      	20284    	9.03925
494.0000      	20242.9    	9.11625
495.0000      	20202    	9.18108
496.0000      	20161.3    	9.19002
497.0000      	20120.7    	9.18997
498.0000      	20080.3    	9.19988
499.0000      	20040.1    	9.22079
500.0000      	20000    	9.23204
501.0000      	19960.1    	9.23034
502.0000      	19920.3    	9.26461
503.0000      	19880.7    	9.24561
504.0000      	19841.3    	9.24980
505.0000      	19802    	9.25861
506.0000      	19762.8    	9.25824
507.0000      	19723.9    	9.22560
508.0000      	19685    	9.15845
509.0000      	19646.4    	9.08452
510.0000      	19607.8    	9.02704
511.0000      	19569.5    	8.97107
512.0000      	19531.2    	8.87719
513.0000      	19493.2    	8.81978
514.0000      	19455.3    	8.71122
515.0000      	19417.5    	8.59911
516.0000      	19379.8    	8.47524
517.0000      	19342.4    	8.36690
518.0000      	19305    	8.22260
519.0000      	19267.8    	8.15872
520.0000      	19230.8    	8.00910
521.0000      	19193.9    	7.89027
522.0000      	19157.1    	7.76684
523.0000      	19120.5    	7.68398
524.0000      	19084    	7.55910
525.0000      	19047.6    	7.44665
526.0000      	19011.4    	7.37210
527.0000      	18975.3    	7.25322
528.0000      	18939.4    	7.15411
529.0000      	18903.6    	7.07114
530.0000      	18867.9    	6.97778
531.0000      	18832.4    	6.90531
532.0000      	18797    	6.85308
533.0000      	18761.7    	6.83244
534.0000      	18726.6    	6.75753
535.0000      	18691.6    	6.72092
536.0000      	18656.7    	6.66852
537.0000      	18622    	6.59589
538.0000      	18587.4    	6.56694
539.0000      	18552.9    	6.56880
540.0000      	18518.5    	6.60658
541.0000      	18484.3    	6.58631
542.0000      	18450.2    	6.56858
543.0000      	18416.2    	6.54165
544.0000      	18382.4    	6.53960
545.0000      	18348.6    	6.53607
546.0000      	18315    	6.51787
547.0000      	18281.5    	6.51479
548.0000      	18248.2    	6.47730
549.0000      	18214.9    	6.44351
550.0000      	18181.8    	6.38999
551.0000      	18148.8    	6.37569
552.0000      	18115.9    	6.33958
553.0000      	18083.2    	6.30194
554.0000      	18050.5    	6.23305
555.0000      	18018    	6.12815
556.0000      	17985.6    	6.04086
557.0000      	17953.3    	5.94698
558.0000      	17921.1    	5.91743
559.0000      	17889.1    	5.87072
560.0000      	17857.1    	5.81227
561.0000      	17825.3    	5.69920
562.0000      	17793.6    	5.63237
563.0000      	17762    	5.57911
564.0000      	17730.5    	5.55985
565.0000      	17699.1    	5.52020
566.0000      	17667.8    	5.48690
567.0000      	17636.7    	5.45703
568.0000      	17605.6    	5.44411
569.0000      	17574.7    	5.42826
570.0000      	17543.9    	5.42118
571.0000      	17513.1    	5.45023
572.0000      	17482.5    	5.45336
573.0000      	17452    	5.47655
574.0000      	17421.6    	5.53981
575.0000      	17391.3    	5.57331
576.0000      	17361.1    	5.63764
577.0000      	17331    	5.71018
578.0000      	17301    	5.79349
579.0000      	17271.2    	5.88371
580.0000      	17241.4    	6.00331
581.0000      	17211.7    	6.05645
582.0000      	17182.1    	6.14397
583.0000      	17152.7    	6.25425
584.0000      	17123.3    	6.35747
585.0000      	17094    	6.48278
586.0000      	17064.8    	6.57526
587.0000      	17035.8    	6.62893
588.0000      	17006.8    	6.73687
589.0000      	16977.9    	6.86721
590.0000      	16949.2    	7.01939
591.0000      	16920.5    	7.18606
592.0000      	16891.9    	7.29359
593.0000      	16863.4    	7.31154
594.0000      	16835    	7.40430
595.0000      	16806.7    	7.41900
596.0000      	16778.5    	7.38647
597.0000      	16750.4    	7.43466
598.0000      	16722.4    	7.53228
599.0000      	16694.5    	7.56724
600.0000      	16666.7    	7.57550
601.0000      	16638.9    	7.54742
602.0000      	16611.3    	7.53753
603.0000      	16583.7    	7.52690
604.0000      	16556.3    	7.54062
605.0000      	16528.9    	7.60254
606.0000      	16501.7    	7.60742
607.0000      	16474.5    	7.57244
608.0000      	16447.4    	7.56864
609.0000      	16420.4    	7.59729
610.0000      	16393.4    	7.64982
611.0000      	16366.6    	7.63544
612.0000      	16339.9    	7.61879
613.0000      	16313.2    	7.59155
614.0000      	16286.6    	7.62053
615.0000      	16260.2    	7.61415
616.0000      	16233.8    	7.61417
617.0000      	16207.5    	7.61342
618.0000      	16181.2    	7.59100
619.0000      	16155.1    	7.61742
620.0000      	16129    	7.66233
621.0000      	16103.1    	7.66834
622.0000      	16077.2    	7.66419
623.0000      	16051.4    	7.64330
624.0000      	16025.6    	7.67360
625.0000      	16000    	7.72160
626.0000      	15974.4    	7.74921
627.0000      	15949    	7.79917
628.0000      	15923.6    	7.85035
629.0000      	15898.3    	7.84525
630.0000      	15873    	7.82141
631.0000      	15847.9    	7.81944
632.0000      	15822.8    	7.83070
633.0000      	15797.8    	7.81017
634.0000      	15772.9    	7.82801
635.0000      	15748    	7.82108
636.0000      	15723.3    	7.82651
637.0000      	15698.6    	7.82499
638.0000      	15674    	7.84238
639.0000      	15649.5    	7.89275
640.0000      	15625    	7.93919
641.0000      	15600.6    	7.96217
642.0000      	15576.3    	7.93700
643.0000      	15552.1    	8.02844
644.0000      	15528    	8.10971
645.0000      	15503.9    	8.15258
646.0000      	15479.9    	8.21309
647.0000      	15456    	8.25109
648.0000      	15432.1    	8.27367
649.0000      	15408.3    	8.23623
650.0000      	15384.6    	8.25665
651.0000      	15361    	8.36661
652.0000      	15337.4    	8.44001
653.0000      	15313.9    	8.44754
654.0000      	15290.5    	8.50060
655.0000      	15267.2    	8.56299
656.0000      	15243.9    	8.61554
657.0000      	15220.7    	8.65050
658.0000      	15197.6    	8.66500
659.0000      	15174.5    	8.74552
660.0000      	15151.5    	8.80950
661.0000      	15128.6    	8.84761
662.0000      	15105.7    	8.86144
663.0000      	15083    	8.86538
664.0000      	15060.2    	8.93984
665.0000      	15037.6    	8.95102
666.0000      	15015    	8.97960
667.0000      	14992.5    	9.02429
668.0000      	14970.1    	9.06450
669.0000      	14947.7    	9.02105
670.0000      	14925.4    	9.13993
671.0000      	14903.1    	9.20320
672.0000      	14881    	9.21352
673.0000      	14858.8    	9.20654
674.0000      	14836.8    	9.09299
675.0000      	14814.8    	9.06209
676.0000      	14792.9    	9.07020
677.0000      	14771    	9.00435
678.0000      	14749.3    	9.02092
679.0000      	14727.5    	9.06153
680.0000      	14705.9    	9.07436
681.0000      	14684.3    	9.08416
682.0000      	14662.8    	9.04810
683.0000      	14641.3    	9.00412
684.0000      	14619.9    	9.05071
685.0000      	14598.5    	9.04813
686.0000      	14577.3    	9.06392
687.0000      	14556    	9.03093
688.0000      	14534.9    	9.05711
689.0000      	14513.8    	8.98924
690.0000      	14492.8    	8.93715
691.0000      	14471.8    	8.89827
692.0000      	14450.9    	8.87800
693.0000      	14430    	8.86335
694.0000      	14409.2    	8.87158
695.0000      	14388.5    	8.80106
696.0000      	14367.8    	8.75804
697.0000      	14347.2    	8.71945
698.0000      	14326.6    	8.68823
699.0000      	14306.2    	8.76728
700.0000      	14285.7    	8.70534
701.0000      	14265.3    	8.61463
702.0000      	14245    	8.57609
703.0000      	14224.8    	8.53263
704.0000      	14204.5    	8.48517
705.0000      	14184.4    	8.51967
706.0000      	14164.3    	8.48434
707.0000      	14144.3    	8.48786
708.0000      	14124.3    	8.45792
709.0000      	14104.4    	8.43254
710.0000      	14084.5    	8.41363
711.0000      	14064.7    	8.50783
712.0000      	14044.9    	8.44096
713.0000      	14025.2    	8.44191
714.0000      	14005.6    	8.47717
715.0000      	13986    	8.48562
716.0000      	13966.5    	8.47442
717.0000      	13947    	8.49738
718.0000      	13927.6    	8.52615
719.0000      	13908.2    	8.58401
720.0000      	13888.9    	8.62671
721.0000      	13869.6    	8.63490
722.0000      	13850.4    	8.79383
723.0000      	13831.3    	8.82338
724.0000      	13812.2    	8.85372
725.0000      	13793.1    	8.85663
726.0000      	13774.1    	9.00330
727.0000      	13755.2    	9.16208
728.0000      	13736.3    	9.18878
729.0000      	13717.4    	9.23753
730.0000      	13698.6    	9.26611
731.0000      	13679.9    	9.36040
732.0000      	13661.2    	9.43706
733.0000      	13642.6    	9.53847
734.0000      	13624    	9.67619
735.0000      	13605.4    	9.82545
736.0000      	13587    	9.85568
737.0000      	13568.5    	9.86553
738.0000      	13550.1    	10.09457
739.0000      	13531.8    	10.33324
740.0000      	13513.5    	10.55359
741.0000      	13495.3    	10.80169
742.0000      	13477.1    	10.87878
743.0000      	13459    	11.10262
744.0000      	13440.9    	11.28764
745.0000      	13422.8    	11.44388
746.0000      	13404.8    	11.67030
747.0000      	13386.9    	11.84053
748.0000      	13369    	12.05713
749.0000      	13351.1    	12.35005
750.0000      	13333.3    	12.75674
751.0000      	13315.6    	13.04753
752.0000      	13297.9    	13.43703
753.0000      	13280.2    	13.72829
754.0000      	13262.6    	14.08568
755.0000      	13245    	14.31053
756.0000      	13227.5    	14.48241
757.0000      	13210    	14.94609
758.0000      	13192.6    	15.51864
759.0000      	13175.2    	15.96377
760.0000      	13157.9    	16.35264
761.0000      	13140.6    	16.44997
762.0000      	13123.4    	16.56774
763.0000      	13106.2    	16.99022
764.0000      	13089    	17.22306
765.0000      	13071.9    	17.32343
766.0000      	13054.8    	17.45907
767.0000      	13037.8    	17.56081
768.0000      	13020.8    	17.81948
769.0000      	13003.9    	18.11088
770.0000      	12987    	18.23430
771.0000      	12970.2    	18.41529
772.0000      	12953.4    	18.54446
773.0000      	12936.6    	18.69002
774.0000      	12919.9    	18.81915
775.0000      	12903.2    	19.16632
776.0000      	12886.6    	19.34116
777.0000      	12870    	19.36371
778.0000      	12853.5    	19.30031
779.0000      	12837    	19.42124
780.0000      	12820.5    	19.44664
781.0000      	12804.1    	19.43202
782.0000      	12787.7    	19.40819
783.0000      	12771.4    	19.42643
784.0000      	12755.1    	19.52743
785.0000      	12738.9    	19.59971
786.0000      	12722.6    	19.68635
787.0000      	12706.5    	19.67805
788.0000      	12690.4    	19.77485
789.0000      	12674.3    	19.90808
790.0000      	12658.2    	20.12557
791.0000      	12642.2    	20.07579
792.0000      	12626.3    	19.91046
793.0000      	12610.3    	19.78830
794.0000      	12594.5    	19.75711
795.0000      	12578.6    	19.97531
796.0000      	12562.8    	20.15854
797.0000      	12547.1    	20.09712
798.0000      	12531.3    	20.20496
799.0000      	12515.6    	20.35119
800.0000      	12500    	20.47569