File: data/Reflectance_measurements/Reflectance_2019_material/87/87_2.txt
Unit Serial No : 240-IM0P2424-EU
Integration Time : 10 ms
Time Average: 10
Binning Average: 2
FFT Smoothing: 0%
Project Name : RPS900-R
Sample Name :  SM240-IMOP2424-EU
Measurement No : 1
Measurement Time : 06/03/2019   14:45:05

Wavelength(nm)	Wavenumber(1/cm)	Transmittance(%)
300.0000      	33333.3    	2.40178
301.0000      	33222.6    	3.41459
302.0000      	33112.6    	2.52692
303.0000      	33003.3    	1.56718
304.0000      	32894.7    	2.11925
305.0000      	32786.9    	1.79217
306.0000      	32679.7    	1.75877
307.0000      	32573.3    	1.61910
308.0000      	32467.5    	2.10568
309.0000      	32362.5    	2.31076
310.0000      	32258.1    	2.06049
311.0000      	32154.3    	1.51933
312.0000      	32051.3    	1.44715
313.0000      	31948.9    	2.22796
314.0000      	31847.1    	2.76947
315.0000      	31746    	1.70156
316.0000      	31645.6    	0.73736
317.0000      	31545.7    	0.78034
318.0000      	31446.5    	1.61926
319.0000      	31348    	1.75401
320.0000      	31250    	1.87336
321.0000      	31152.6    	0.91236
322.0000      	31055.9    	0.80555
323.0000      	30959.8    	1.25663
324.0000      	30864.2    	1.48096
325.0000      	30769.2    	1.71890
326.0000      	30674.8    	1.37951
327.0000      	30581    	1.39978
328.0000      	30487.8    	1.20744
329.0000      	30395.1    	1.51665
330.0000      	30303    	1.34089
331.0000      	30211.5    	1.30467
332.0000      	30120.5    	1.03106
333.0000      	30030    	1.00155
334.0000      	29940.1    	1.19946
335.0000      	29850.7    	1.26648
336.0000      	29761.9    	1.10732
337.0000      	29673.6    	1.14443
338.0000      	29585.8    	1.08250
339.0000      	29498.5    	1.15846
340.0000      	29411.8    	0.97382
341.0000      	29325.5    	1.06356
342.0000      	29239.8    	1.31395
343.0000      	29154.5    	1.25173
344.0000      	29069.8    	1.14922
345.0000      	28985.5    	1.10484
346.0000      	28901.7    	1.17309
347.0000      	28818.4    	1.10948
348.0000      	28735.6    	1.14257
349.0000      	28653.3    	1.00828
350.0000      	28571.4    	0.94983
351.0000      	28490    	1.05826
352.0000      	28409.1    	0.97538
353.0000      	28328.6    	1.05225
354.0000      	28248.6    	1.13857
355.0000      	28169    	0.89148
356.0000      	28089.9    	1.15831
357.0000      	28011.2    	1.07056
358.0000      	27933    	0.82679
359.0000      	27855.2    	0.74946
360.0000      	27777.8    	0.70770
361.0000      	27700.8    	0.85910
362.0000      	27624.3    	1.17624
363.0000      	27548.2    	1.27620
364.0000      	27472.5    	1.10499
365.0000      	27397.3    	0.98962
366.0000      	27322.4    	0.98305
367.0000      	27248    	0.89062
368.0000      	27173.9    	0.85866
369.0000      	27100.3    	0.93293
370.0000      	27027    	0.87117
371.0000      	26954.2    	0.78040
372.0000      	26881.7    	0.67303
373.0000      	26809.7    	0.75794
374.0000      	26738    	0.80240
375.0000      	26666.7    	0.73312
376.0000      	26595.7    	0.74363
377.0000      	26525.2    	0.68756
378.0000      	26455    	0.66175
379.0000      	26385.2    	0.80650
380.0000      	26315.8    	0.85221
381.0000      	26246.7    	0.73082
382.0000      	26178    	0.68421
383.0000      	26109.7    	0.78051
384.0000      	26041.7    	0.80107
385.0000      	25974    	0.80090
386.0000      	25906.7    	0.79292
387.0000      	25839.8    	0.88065
388.0000      	25773.2    	0.78201
389.0000      	25706.9    	0.87572
390.0000      	25641    	0.97602
391.0000      	25575.4    	0.82837
392.0000      	25510.2    	0.80932
393.0000      	25445.3    	0.76727
394.0000      	25380.7    	0.83937
395.0000      	25316.5    	0.82402
396.0000      	25252.5    	0.79694
397.0000      	25188.9    	0.70793
398.0000      	25125.6    	0.64277
399.0000      	25062.7    	0.62751
400.0000      	25000    	0.74292
401.0000      	24937.7    	0.86766
402.0000      	24875.6    	0.86258
403.0000      	24813.9    	0.78881
404.0000      	24752.5    	0.69884
405.0000      	24691.4    	0.73339
406.0000      	24630.5    	0.70864
407.0000      	24570    	0.74874
408.0000      	24509.8    	0.68353
409.0000      	24449.9    	0.63708
410.0000      	24390.2    	0.77681
411.0000      	24330.9    	0.84910
412.0000      	24271.8    	0.84833
413.0000      	24213.1    	0.79349
414.0000      	24154.6    	0.80065
415.0000      	24096.4    	0.73201
416.0000      	24038.5    	0.74158
417.0000      	23980.8    	0.77820
418.0000      	23923.4    	0.80658
419.0000      	23866.3    	0.85664
420.0000      	23809.5    	0.75217
421.0000      	23753    	0.71939
422.0000      	23696.7    	0.63583
423.0000      	23640.7    	0.72744
424.0000      	23584.9    	0.86932
425.0000      	23529.4    	0.81668
426.0000      	23474.2    	0.74770
427.0000      	23419.2    	0.60459
428.0000      	23364.5    	0.64678
429.0000      	23310    	0.75290
430.0000      	23255.8    	0.80299
431.0000      	23201.9    	0.77527
432.0000      	23148.1    	0.65703
433.0000      	23094.7    	0.68706
434.0000      	23041.5    	0.72293
435.0000      	22988.5    	0.75278
436.0000      	22935.8    	0.73029
437.0000      	22883.3    	0.73819
438.0000      	22831.1    	0.70890
439.0000      	22779    	0.70440
440.0000      	22727.3    	0.76594
441.0000      	22675.7    	0.71483
442.0000      	22624.4    	0.67180
443.0000      	22573.4    	0.73802
444.0000      	22522.5    	0.81881
445.0000      	22471.9    	0.82596
446.0000      	22421.5    	0.78046
447.0000      	22371.4    	0.79608
448.0000      	22321.4    	0.70784
449.0000      	22271.7    	0.68544
450.0000      	22222.2    	0.67279
451.0000      	22172.9    	0.66784
452.0000      	22123.9    	0.69261
453.0000      	22075.1    	0.66361
454.0000      	22026.4    	0.66914
455.0000      	21978    	0.65602
456.0000      	21929.8    	0.71067
457.0000      	21881.8    	0.78245
458.0000      	21834.1    	0.69741
459.0000      	21786.5    	0.62789
460.0000      	21739.1    	0.60798
461.0000      	21692    	0.63408
462.0000      	21645    	0.67705
463.0000      	21598.3    	0.71736
464.0000      	21551.7    	0.71734
465.0000      	21505.4    	0.72107
466.0000      	21459.2    	0.69997
467.0000      	21413.3    	0.64950
468.0000      	21367.5    	0.66856
469.0000      	21322    	0.72528
470.0000      	21276.6    	0.73740
471.0000      	21231.4    	0.69719
472.0000      	21186.4    	0.69223
473.0000      	21141.6    	0.69047
474.0000      	21097    	0.71347
475.0000      	21052.6    	0.69097
476.0000      	21008.4    	0.64246
477.0000      	20964.4    	0.63337
478.0000      	20920.5    	0.64060
479.0000      	20876.8    	0.66290
480.0000      	20833.3    	0.67554
481.0000      	20790    	0.64175
482.0000      	20746.9    	0.62963
483.0000      	20703.9    	0.62982
484.0000      	20661.2    	0.63952
485.0000      	20618.6    	0.64466
486.0000      	20576.1    	0.65015
487.0000      	20533.9    	0.61064
488.0000      	20491.8    	0.58215
489.0000      	20449.9    	0.59700
490.0000      	20408.2    	0.62160
491.0000      	20366.6    	0.63196
492.0000      	20325.2    	0.65007
493.0000      	20284    	0.64108
494.0000      	20242.9    	0.64395
495.0000      	20202    	0.63529
496.0000      	20161.3    	0.66348
497.0000      	20120.7    	0.63579
498.0000      	20080.3    	0.62385
499.0000      	20040.1    	0.62475
500.0000      	20000    	0.60567
501.0000      	19960.1    	0.62340
502.0000      	19920.3    	0.65058
503.0000      	19880.7    	0.67303
504.0000      	19841.3    	0.66686
505.0000      	19802    	0.64976
506.0000      	19762.8    	0.63588
507.0000      	19723.9    	0.63052
508.0000      	19685    	0.65208
509.0000      	19646.4    	0.66248
510.0000      	19607.8    	0.62265
511.0000      	19569.5    	0.62482
512.0000      	19531.2    	0.63169
513.0000      	19493.2    	0.63461
514.0000      	19455.3    	0.64382
515.0000      	19417.5    	0.64744
516.0000      	19379.8    	0.62888
517.0000      	19342.4    	0.62301
518.0000      	19305    	0.62550
519.0000      	19267.8    	0.64223
520.0000      	19230.8    	0.67475
521.0000      	19193.9    	0.67632
522.0000      	19157.1    	0.65914
523.0000      	19120.5    	0.63626
524.0000      	19084    	0.66437
525.0000      	19047.6    	0.65063
526.0000      	19011.4    	0.65277
527.0000      	18975.3    	0.64402
528.0000      	18939.4    	0.62025
529.0000      	18903.6    	0.62848
530.0000      	18867.9    	0.66146
531.0000      	18832.4    	0.68846
532.0000      	18797    	0.70880
533.0000      	18761.7    	0.68769
534.0000      	18726.6    	0.66916
535.0000      	18691.6    	0.64438
536.0000      	18656.7    	0.64267
537.0000      	18622    	0.63498
538.0000      	18587.4    	0.63572
539.0000      	18552.9    	0.62510
540.0000      	18518.5    	0.63450
541.0000      	18484.3    	0.65560
542.0000      	18450.2    	0.66532
543.0000      	18416.2    	0.68006
544.0000      	18382.4    	0.65928
545.0000      	18348.6    	0.65105
546.0000      	18315    	0.64732
547.0000      	18281.5    	0.64518
548.0000      	18248.2    	0.64496
549.0000      	18214.9    	0.63740
550.0000      	18181.8    	0.67338
551.0000      	18148.8    	0.66065
552.0000      	18115.9    	0.64311
553.0000      	18083.2    	0.65042
554.0000      	18050.5    	0.68630
555.0000      	18018    	0.66089
556.0000      	17985.6    	0.66918
557.0000      	17953.3    	0.66480
558.0000      	17921.1    	0.67632
559.0000      	17889.1    	0.66549
560.0000      	17857.1    	0.67366
561.0000      	17825.3    	0.65319
562.0000      	17793.6    	0.63827
563.0000      	17762    	0.65694
564.0000      	17730.5    	0.65145
565.0000      	17699.1    	0.65111
566.0000      	17667.8    	0.67986
567.0000      	17636.7    	0.68388
568.0000      	17605.6    	0.68396
569.0000      	17574.7    	0.69377
570.0000      	17543.9    	0.70511
571.0000      	17513.1    	0.66814
572.0000      	17482.5    	0.67299
573.0000      	17452    	0.66144
574.0000      	17421.6    	0.65392
575.0000      	17391.3    	0.65444
576.0000      	17361.1    	0.66229
577.0000      	17331    	0.66964
578.0000      	17301    	0.66536
579.0000      	17271.2    	0.66701
580.0000      	17241.4    	0.67900
581.0000      	17211.7    	0.68179
582.0000      	17182.1    	0.69704
583.0000      	17152.7    	0.65882
584.0000      	17123.3    	0.65729
585.0000      	17094    	0.66609
586.0000      	17064.8    	0.67706
587.0000      	17035.8    	0.67823
588.0000      	17006.8    	0.67934
589.0000      	16977.9    	0.68148
590.0000      	16949.2    	0.68121
591.0000      	16920.5    	0.64608
592.0000      	16891.9    	0.61350
593.0000      	16863.4    	0.62052
594.0000      	16835    	0.65184
595.0000      	16806.7    	0.68287
596.0000      	16778.5    	0.68410
597.0000      	16750.4    	0.67341
598.0000      	16722.4    	0.70713
599.0000      	16694.5    	0.70964
600.0000      	16666.7    	0.70756
601.0000      	16638.9    	0.63278
602.0000      	16611.3    	0.61854
603.0000      	16583.7    	0.63237
604.0000      	16556.3    	0.65301
605.0000      	16528.9    	0.68490
606.0000      	16501.7    	0.71128
607.0000      	16474.5    	0.64422
608.0000      	16447.4    	0.63147
609.0000      	16420.4    	0.62849
610.0000      	16393.4    	0.64691
611.0000      	16366.6    	0.71899
612.0000      	16339.9    	0.74215
613.0000      	16313.2    	0.74350
614.0000      	16286.6    	0.72285
615.0000      	16260.2    	0.71413
616.0000      	16233.8    	0.66394
617.0000      	16207.5    	0.67179
618.0000      	16181.2    	0.69676
619.0000      	16155.1    	0.70293
620.0000      	16129    	0.68685
621.0000      	16103.1    	0.68423
622.0000      	16077.2    	0.69302
623.0000      	16051.4    	0.70239
624.0000      	16025.6    	0.67167
625.0000      	16000    	0.65421
626.0000      	15974.4    	0.65748
627.0000      	15949    	0.65920
628.0000      	15923.6    	0.66146
629.0000      	15898.3    	0.69673
630.0000      	15873    	0.67732
631.0000      	15847.9    	0.65859
632.0000      	15822.8    	0.65496
633.0000      	15797.8    	0.66222
634.0000      	15772.9    	0.66986
635.0000      	15748    	0.75602
636.0000      	15723.3    	0.73329
637.0000      	15698.6    	0.74286
638.0000      	15674    	0.69738
639.0000      	15649.5    	0.70027
640.0000      	15625    	0.72481
641.0000      	15600.6    	0.71482
642.0000      	15576.3    	0.71729
643.0000      	15552.1    	0.67340
644.0000      	15528    	0.63793
645.0000      	15503.9    	0.65224
646.0000      	15479.9    	0.72675
647.0000      	15456    	0.74005
648.0000      	15432.1    	0.75427
649.0000      	15408.3    	0.71166
650.0000      	15384.6    	0.65344
651.0000      	15361    	0.63125
652.0000      	15337.4    	0.69958
653.0000      	15313.9    	0.75097
654.0000      	15290.5    	0.74511
655.0000      	15267.2    	0.72811
656.0000      	15243.9    	0.71094
657.0000      	15220.7    	0.75298
658.0000      	15197.6    	0.76135
659.0000      	15174.5    	0.74716
660.0000      	15151.5    	0.76861
661.0000      	15128.6    	0.73227
662.0000      	15105.7    	0.75388
663.0000      	15083    	0.76068
664.0000      	15060.2    	0.77526
665.0000      	15037.6    	0.78873
666.0000      	15015    	0.75732
667.0000      	14992.5    	0.66131
668.0000      	14970.1    	0.64348
669.0000      	14947.7    	0.67819
670.0000      	14925.4    	0.78155
671.0000      	14903.1    	0.82509
672.0000      	14881    	0.80125
673.0000      	14858.8    	0.79400
674.0000      	14836.8    	0.71996
675.0000      	14814.8    	0.73271
676.0000      	14792.9    	0.74819
677.0000      	14771    	0.77982
678.0000      	14749.3    	0.76050
679.0000      	14727.5    	0.69377
680.0000      	14705.9    	0.72996
681.0000      	14684.3    	0.81825
682.0000      	14662.8    	0.76358
683.0000      	14641.3    	0.73009
684.0000      	14619.9    	0.72963
685.0000      	14598.5    	0.74109
686.0000      	14577.3    	0.76518
687.0000      	14556    	0.78485
688.0000      	14534.9    	0.80143
689.0000      	14513.8    	0.72661
690.0000      	14492.8    	0.68666
691.0000      	14471.8    	0.71871
692.0000      	14450.9    	0.72306
693.0000      	14430    	0.78094
694.0000      	14409.2    	0.77396
695.0000      	14388.5    	0.79397
696.0000      	14367.8    	0.74214
697.0000      	14347.2    	0.75388
698.0000      	14326.6    	0.73316
699.0000      	14306.2    	0.74583
700.0000      	14285.7    	0.78421
701.0000      	14265.3    	0.87248
702.0000      	14245    	0.85070
703.0000      	14224.8    	0.84091
704.0000      	14204.5    	0.78632
705.0000      	14184.4    	0.90728
706.0000      	14164.3    	0.84975
707.0000      	14144.3    	0.81660
708.0000      	14124.3    	0.78209
709.0000      	14104.4    	0.78036
710.0000      	14084.5    	0.82541
711.0000      	14064.7    	0.88681
712.0000      	14044.9    	0.81134
713.0000      	14025.2    	0.75488
714.0000      	14005.6    	0.67757
715.0000      	13986    	0.69407
716.0000      	13966.5    	0.79854
717.0000      	13947    	0.87743
718.0000      	13927.6    	0.90940
719.0000      	13908.2    	0.89625
720.0000      	13888.9    	0.85508
721.0000      	13869.6    	0.91880
722.0000      	13850.4    	0.98885
723.0000      	13831.3    	1.02169
724.0000      	13812.2    	1.00570
725.0000      	13793.1    	0.87812
726.0000      	13774.1    	0.84790
727.0000      	13755.2    	0.76775
728.0000      	13736.3    	0.79298
729.0000      	13717.4    	0.90181
730.0000      	13698.6    	0.94712
731.0000      	13679.9    	0.89876
732.0000      	13661.2    	0.88229
733.0000      	13642.6    	0.78426
734.0000      	13624    	0.80257
735.0000      	13605.4    	0.86892
736.0000      	13587    	0.86961
737.0000      	13568.5    	0.90524
738.0000      	13550.1    	0.96563
739.0000      	13531.8    	0.92501
740.0000      	13513.5    	1.08077
741.0000      	13495.3    	1.17654
742.0000      	13477.1    	1.20121
743.0000      	13459    	1.08998
744.0000      	13440.9    	0.98617
745.0000      	13422.8    	0.99035
746.0000      	13404.8    	0.90432
747.0000      	13386.9    	0.99649
748.0000      	13369    	1.02751
749.0000      	13351.1    	0.97218
750.0000      	13333.3    	0.96455
751.0000      	13315.6    	0.95250
752.0000      	13297.9    	0.87253
753.0000      	13280.2    	0.98433
754.0000      	13262.6    	1.02008
755.0000      	13245    	1.08283
756.0000      	13227.5    	1.06565
757.0000      	13210    	1.08868
758.0000      	13192.6    	1.03034
759.0000      	13175.2    	1.04394
760.0000      	13157.9    	1.00442
761.0000      	13140.6    	1.05907
762.0000      	13123.4    	1.00813
763.0000      	13106.2    	1.02506
764.0000      	13089    	1.10905
765.0000      	13071.9    	1.15378
766.0000      	13054.8    	1.06682
767.0000      	13037.8    	0.91578
768.0000      	13020.8    	0.90160
769.0000      	13003.9    	0.92573
770.0000      	12987    	0.98964
771.0000      	12970.2    	1.16532
772.0000      	12953.4    	1.00927
773.0000      	12936.6    	0.90174
774.0000      	12919.9    	0.87757
775.0000      	12903.2    	1.10508
776.0000      	12886.6    	1.28063
777.0000      	12870    	1.27146
778.0000      	12853.5    	0.99574
779.0000      	12837    	1.08711
780.0000      	12820.5    	1.07254
781.0000      	12804.1    	1.27045
782.0000      	12787.7    	1.35054
783.0000      	12771.4    	1.50138
784.0000      	12755.1    	1.35058
785.0000      	12738.9    	1.15332
786.0000      	12722.6    	1.07558
787.0000      	12706.5    	1.12266
788.0000      	12690.4    	1.30374
789.0000      	12674.3    	1.27459
790.0000      	12658.2    	1.28841
791.0000      	12642.2    	0.99377
792.0000      	12626.3    	0.86563
793.0000      	12610.3    	0.82037
794.0000      	12594.5    	1.03101
795.0000      	12578.6    	1.11411
796.0000      	12562.8    	1.12386
797.0000      	12547.1    	1.21627
798.0000      	12531.3    	1.20195
799.0000      	12515.6    	1.19783
800.0000      	12500    	1.31448