File: data/Reflectance_measurements/Reflectance_2019_material/87/87_3 .txt
Unit Serial No : 240-IM0P2424-EU
Integration Time : 10 ms
Time Average: 10
Binning Average: 2
FFT Smoothing: 0%
Project Name : RPS900-R
Sample Name :  SM240-IMOP2424-EU
Measurement No : 1
Measurement Time : 06/03/2019   14:45:31

Wavelength(nm)	Wavenumber(1/cm)	Transmittance(%)
300.0000      	33333.3    	3.50832
301.0000      	33222.6    	3.05966
302.0000      	33112.6    	1.12788
303.0000      	33003.3    	1.10714
304.0000      	32894.7    	3.43671
305.0000      	32786.9    	3.97736
306.0000      	32679.7    	3.03000
307.0000      	32573.3    	1.77285
308.0000      	32467.5    	1.39970
309.0000      	32362.5    	1.21230
310.0000      	32258.1    	1.64184
311.0000      	32154.3    	2.16815
312.0000      	32051.3    	1.90204
313.0000      	31948.9    	1.68437
314.0000      	31847.1    	1.89312
315.0000      	31746    	2.52425
316.0000      	31645.6    	2.45748
317.0000      	31545.7    	1.71740
318.0000      	31446.5    	1.61190
319.0000      	31348    	0.75679
320.0000      	31250    	1.44195
321.0000      	31152.6    	1.28815
322.0000      	31055.9    	1.43756
323.0000      	30959.8    	1.33572
324.0000      	30864.2    	1.06247
325.0000      	30769.2    	1.16839
326.0000      	30674.8    	1.36572
327.0000      	30581    	1.63985
328.0000      	30487.8    	1.46098
329.0000      	30395.1    	1.14028
330.0000      	30303    	0.87147
331.0000      	30211.5    	1.16741
332.0000      	30120.5    	1.66449
333.0000      	30030    	1.50130
334.0000      	29940.1    	1.24192
335.0000      	29850.7    	0.76066
336.0000      	29761.9    	0.85880
337.0000      	29673.6    	1.36730
338.0000      	29585.8    	1.44773
339.0000      	29498.5    	1.20221
340.0000      	29411.8    	0.93975
341.0000      	29325.5    	1.04638
342.0000      	29239.8    	1.37732
343.0000      	29154.5    	1.34072
344.0000      	29069.8    	1.05824
345.0000      	28985.5    	0.87762
346.0000      	28901.7    	0.90404
347.0000      	28818.4    	0.97955
348.0000      	28735.6    	1.34479
349.0000      	28653.3    	1.40579
350.0000      	28571.4    	1.13249
351.0000      	28490    	0.90981
352.0000      	28409.1    	0.65604
353.0000      	28328.6    	0.88763
354.0000      	28248.6    	1.11522
355.0000      	28169    	0.94635
356.0000      	28089.9    	0.99009
357.0000      	28011.2    	0.73161
358.0000      	27933    	0.91205
359.0000      	27855.2    	1.12306
360.0000      	27777.8    	1.24782
361.0000      	27700.8    	1.07107
362.0000      	27624.3    	0.94620
363.0000      	27548.2    	0.96920
364.0000      	27472.5    	1.11595
365.0000      	27397.3    	1.06667
366.0000      	27322.4    	0.93647
367.0000      	27248    	0.76507
368.0000      	27173.9    	0.55225
369.0000      	27100.3    	0.59371
370.0000      	27027    	0.79088
371.0000      	26954.2    	0.91660
372.0000      	26881.7    	0.97998
373.0000      	26809.7    	0.84456
374.0000      	26738    	0.69619
375.0000      	26666.7    	0.68918
376.0000      	26595.7    	0.90976
377.0000      	26525.2    	0.85716
378.0000      	26455    	0.72261
379.0000      	26385.2    	0.64396
380.0000      	26315.8    	0.77707
381.0000      	26246.7    	0.87750
382.0000      	26178    	0.97076
383.0000      	26109.7    	0.99330
384.0000      	26041.7    	0.76579
385.0000      	25974    	0.67833
386.0000      	25906.7    	0.73405
387.0000      	25839.8    	0.93201
388.0000      	25773.2    	0.82620
389.0000      	25706.9    	0.78211
390.0000      	25641    	0.74546
391.0000      	25575.4    	0.72966
392.0000      	25510.2    	0.78527
393.0000      	25445.3    	0.80017
394.0000      	25380.7    	0.81071
395.0000      	25316.5    	0.68622
396.0000      	25252.5    	0.65486
397.0000      	25188.9    	0.62428
398.0000      	25125.6    	0.71702
399.0000      	25062.7    	0.79423
400.0000      	25000    	0.72793
401.0000      	24937.7    	0.61092
402.0000      	24875.6    	0.59361
403.0000      	24813.9    	0.71154
404.0000      	24752.5    	0.79353
405.0000      	24691.4    	0.88591
406.0000      	24630.5    	0.74479
407.0000      	24570    	0.78035
408.0000      	24509.8    	0.84772
409.0000      	24449.9    	0.87150
410.0000      	24390.2    	0.91925
411.0000      	24330.9    	0.80238
412.0000      	24271.8    	0.72459
413.0000      	24213.1    	0.55851
414.0000      	24154.6    	0.62078
415.0000      	24096.4    	0.75376
416.0000      	24038.5    	0.75443
417.0000      	23980.8    	0.73098
418.0000      	23923.4    	0.67970
419.0000      	23866.3    	0.73292
420.0000      	23809.5    	0.74298
421.0000      	23753    	0.80508
422.0000      	23696.7    	0.70475
423.0000      	23640.7    	0.61948
424.0000      	23584.9    	0.58250
425.0000      	23529.4    	0.56970
426.0000      	23474.2    	0.72310
427.0000      	23419.2    	0.77030
428.0000      	23364.5    	0.73642
429.0000      	23310    	0.66335
430.0000      	23255.8    	0.67349
431.0000      	23201.9    	0.67592
432.0000      	23148.1    	0.75193
433.0000      	23094.7    	0.76468
434.0000      	23041.5    	0.62546
435.0000      	22988.5    	0.49756
436.0000      	22935.8    	0.60200
437.0000      	22883.3    	0.72159
438.0000      	22831.1    	0.75358
439.0000      	22779    	0.70917
440.0000      	22727.3    	0.62942
441.0000      	22675.7    	0.57325
442.0000      	22624.4    	0.65093
443.0000      	22573.4    	0.81487
444.0000      	22522.5    	0.84645
445.0000      	22471.9    	0.76659
446.0000      	22421.5    	0.69758
447.0000      	22371.4    	0.71634
448.0000      	22321.4    	0.68416
449.0000      	22271.7    	0.72263
450.0000      	22222.2    	0.69458
451.0000      	22172.9    	0.56994
452.0000      	22123.9    	0.55209
453.0000      	22075.1    	0.61025
454.0000      	22026.4    	0.74826
455.0000      	21978    	0.76680
456.0000      	21929.8    	0.70976
457.0000      	21881.8    	0.62892
458.0000      	21834.1    	0.61242
459.0000      	21786.5    	0.66648
460.0000      	21739.1    	0.73736
461.0000      	21692    	0.71223
462.0000      	21645    	0.71264
463.0000      	21598.3    	0.67514
464.0000      	21551.7    	0.65853
465.0000      	21505.4    	0.73788
466.0000      	21459.2    	0.74750
467.0000      	21413.3    	0.64146
468.0000      	21367.5    	0.57027
469.0000      	21322    	0.60774
470.0000      	21276.6    	0.65392
471.0000      	21231.4    	0.69446
472.0000      	21186.4    	0.73109
473.0000      	21141.6    	0.65289
474.0000      	21097    	0.61779
475.0000      	21052.6    	0.61746
476.0000      	21008.4    	0.70089
477.0000      	20964.4    	0.70746
478.0000      	20920.5    	0.68599
479.0000      	20876.8    	0.60621
480.0000      	20833.3    	0.58537
481.0000      	20790    	0.61061
482.0000      	20746.9    	0.67052
483.0000      	20703.9    	0.67652
484.0000      	20661.2    	0.64502
485.0000      	20618.6    	0.61237
486.0000      	20576.1    	0.58427
487.0000      	20533.9    	0.55882
488.0000      	20491.8    	0.59018
489.0000      	20449.9    	0.63287
490.0000      	20408.2    	0.63695
491.0000      	20366.6    	0.63157
492.0000      	20325.2    	0.63867
493.0000      	20284    	0.64862
494.0000      	20242.9    	0.68061
495.0000      	20202    	0.66893
496.0000      	20161.3    	0.65103
497.0000      	20120.7    	0.63173
498.0000      	20080.3    	0.65088
499.0000      	20040.1    	0.66931
500.0000      	20000    	0.67227
501.0000      	19960.1    	0.65679
502.0000      	19920.3    	0.64123
503.0000      	19880.7    	0.62222
504.0000      	19841.3    	0.64847
505.0000      	19802    	0.68520
506.0000      	19762.8    	0.68322
507.0000      	19723.9    	0.65210
508.0000      	19685    	0.62985
509.0000      	19646.4    	0.61187
510.0000      	19607.8    	0.60214
511.0000      	19569.5    	0.65455
512.0000      	19531.2    	0.66055
513.0000      	19493.2    	0.64512
514.0000      	19455.3    	0.61655
515.0000      	19417.5    	0.62209
516.0000      	19379.8    	0.64920
517.0000      	19342.4    	0.67725
518.0000      	19305    	0.65852
519.0000      	19267.8    	0.65971
520.0000      	19230.8    	0.66240
521.0000      	19193.9    	0.67103
522.0000      	19157.1    	0.69419
523.0000      	19120.5    	0.69916
524.0000      	19084    	0.67890
525.0000      	19047.6    	0.62176
526.0000      	19011.4    	0.60172
527.0000      	18975.3    	0.61712
528.0000      	18939.4    	0.63751
529.0000      	18903.6    	0.66657
530.0000      	18867.9    	0.64072
531.0000      	18832.4    	0.60993
532.0000      	18797    	0.61415
533.0000      	18761.7    	0.62733
534.0000      	18726.6    	0.67299
535.0000      	18691.6    	0.69071
536.0000      	18656.7    	0.64848
537.0000      	18622    	0.59447
538.0000      	18587.4    	0.60990
539.0000      	18552.9    	0.61844
540.0000      	18518.5    	0.64781
541.0000      	18484.3    	0.65196
542.0000      	18450.2    	0.63163
543.0000      	18416.2    	0.65477
544.0000      	18382.4    	0.65548
545.0000      	18348.6    	0.66963
546.0000      	18315    	0.67274
547.0000      	18281.5    	0.64237
548.0000      	18248.2    	0.60322
549.0000      	18214.9    	0.58997
550.0000      	18181.8    	0.65517
551.0000      	18148.8    	0.66270
552.0000      	18115.9    	0.65709
553.0000      	18083.2    	0.65896
554.0000      	18050.5    	0.64633
555.0000      	18018    	0.62093
556.0000      	17985.6    	0.64011
557.0000      	17953.3    	0.68175
558.0000      	17921.1    	0.69086
559.0000      	17889.1    	0.65679
560.0000      	17857.1    	0.63474
561.0000      	17825.3    	0.65066
562.0000      	17793.6    	0.67546
563.0000      	17762    	0.68959
564.0000      	17730.5    	0.68587
565.0000      	17699.1    	0.65376
566.0000      	17667.8    	0.62078
567.0000      	17636.7    	0.61224
568.0000      	17605.6    	0.64602
569.0000      	17574.7    	0.69033
570.0000      	17543.9    	0.69100
571.0000      	17513.1    	0.64402
572.0000      	17482.5    	0.61619
573.0000      	17452    	0.62694
574.0000      	17421.6    	0.66550
575.0000      	17391.3    	0.68488
576.0000      	17361.1    	0.66097
577.0000      	17331    	0.61768
578.0000      	17301    	0.61191
579.0000      	17271.2    	0.65410
580.0000      	17241.4    	0.68795
581.0000      	17211.7    	0.70330
582.0000      	17182.1    	0.71799
583.0000      	17152.7    	0.63754
584.0000      	17123.3    	0.62167
585.0000      	17094    	0.67144
586.0000      	17064.8    	0.68205
587.0000      	17035.8    	0.68932
588.0000      	17006.8    	0.63699
589.0000      	16977.9    	0.62088
590.0000      	16949.2    	0.63703
591.0000      	16920.5    	0.68165
592.0000      	16891.9    	0.69530
593.0000      	16863.4    	0.68985
594.0000      	16835    	0.65363
595.0000      	16806.7    	0.64543
596.0000      	16778.5    	0.64152
597.0000      	16750.4    	0.68771
598.0000      	16722.4    	0.72763
599.0000      	16694.5    	0.70160
600.0000      	16666.7    	0.67047
601.0000      	16638.9    	0.59481
602.0000      	16611.3    	0.64138
603.0000      	16583.7    	0.70229
604.0000      	16556.3    	0.69700
605.0000      	16528.9    	0.66037
606.0000      	16501.7    	0.64156
607.0000      	16474.5    	0.62874
608.0000      	16447.4    	0.64513
609.0000      	16420.4    	0.68211
610.0000      	16393.4    	0.68760
611.0000      	16366.6    	0.68271
612.0000      	16339.9    	0.64946
613.0000      	16313.2    	0.63532
614.0000      	16286.6    	0.66460
615.0000      	16260.2    	0.68583
616.0000      	16233.8    	0.68802
617.0000      	16207.5    	0.68782
618.0000      	16181.2    	0.65438
619.0000      	16155.1    	0.65141
620.0000      	16129    	0.68847
621.0000      	16103.1    	0.70982
622.0000      	16077.2    	0.71519
623.0000      	16051.4    	0.66305
624.0000      	16025.6    	0.60865
625.0000      	16000    	0.63573
626.0000      	15974.4    	0.67316
627.0000      	15949    	0.72123
628.0000      	15923.6    	0.71759
629.0000      	15898.3    	0.72993
630.0000      	15873    	0.68968
631.0000      	15847.9    	0.69412
632.0000      	15822.8    	0.70549
633.0000      	15797.8    	0.70099
634.0000      	15772.9    	0.64185
635.0000      	15748    	0.65606
636.0000      	15723.3    	0.67897
637.0000      	15698.6    	0.73570
638.0000      	15674    	0.79127
639.0000      	15649.5    	0.79537
640.0000      	15625    	0.72761
641.0000      	15600.6    	0.65197
642.0000      	15576.3    	0.65660
643.0000      	15552.1    	0.67340
644.0000      	15528    	0.73121
645.0000      	15503.9    	0.75068
646.0000      	15479.9    	0.74296
647.0000      	15456    	0.71597
648.0000      	15432.1    	0.68427
649.0000      	15408.3    	0.65989
650.0000      	15384.6    	0.68640
651.0000      	15361    	0.73073
652.0000      	15337.4    	0.72999
653.0000      	15313.9    	0.72430
654.0000      	15290.5    	0.67437
655.0000      	15267.2    	0.71740
656.0000      	15243.9    	0.75180
657.0000      	15220.7    	0.75354
658.0000      	15197.6    	0.74066
659.0000      	15174.5    	0.69575
660.0000      	15151.5    	0.75684
661.0000      	15128.6    	0.76839
662.0000      	15105.7    	0.80542
663.0000      	15083    	0.77567
664.0000      	15060.2    	0.68629
665.0000      	15037.6    	0.64283
666.0000      	15015    	0.67280
667.0000      	14992.5    	0.70118
668.0000      	14970.1    	0.71746
669.0000      	14947.7    	0.73173
670.0000      	14925.4    	0.66704
671.0000      	14903.1    	0.67788
672.0000      	14881    	0.72539
673.0000      	14858.8    	0.77560
674.0000      	14836.8    	0.75251
675.0000      	14814.8    	0.74708
676.0000      	14792.9    	0.71815
677.0000      	14771    	0.74192
678.0000      	14749.3    	0.75143
679.0000      	14727.5    	0.72627
680.0000      	14705.9    	0.73508
681.0000      	14684.3    	0.71126
682.0000      	14662.8    	0.64963
683.0000      	14641.3    	0.62139
684.0000      	14619.9    	0.66317
685.0000      	14598.5    	0.73938
686.0000      	14577.3    	0.75324
687.0000      	14556    	0.68838
688.0000      	14534.9    	0.67185
689.0000      	14513.8    	0.65074
690.0000      	14492.8    	0.76106
691.0000      	14471.8    	0.81358
692.0000      	14450.9    	0.79672
693.0000      	14430    	0.78450
694.0000      	14409.2    	0.75810
695.0000      	14388.5    	0.76324
696.0000      	14367.8    	0.79090
697.0000      	14347.2    	0.78525
698.0000      	14326.6    	0.78470
699.0000      	14306.2    	0.71153
700.0000      	14285.7    	0.73471
701.0000      	14265.3    	0.79076
702.0000      	14245    	0.89448
703.0000      	14224.8    	0.91975
704.0000      	14204.5    	0.87616
705.0000      	14184.4    	0.87036
706.0000      	14164.3    	0.72296
707.0000      	14144.3    	0.73005
708.0000      	14124.3    	0.78956
709.0000      	14104.4    	0.90495
710.0000      	14084.5    	0.86970
711.0000      	14064.7    	0.77306
712.0000      	14044.9    	0.72396
713.0000      	14025.2    	0.76204
714.0000      	14005.6    	0.85783
715.0000      	13986    	0.90334
716.0000      	13966.5    	0.90123
717.0000      	13947    	0.83594
718.0000      	13927.6    	0.81971
719.0000      	13908.2    	0.79025
720.0000      	13888.9    	0.85965
721.0000      	13869.6    	0.92238
722.0000      	13850.4    	0.85953
723.0000      	13831.3    	0.82193
724.0000      	13812.2    	0.80548
725.0000      	13793.1    	0.84436
726.0000      	13774.1    	0.98408
727.0000      	13755.2    	0.88401
728.0000      	13736.3    	0.87213
729.0000      	13717.4    	0.78888
730.0000      	13698.6    	0.80454
731.0000      	13679.9    	0.89067
732.0000      	13661.2    	0.98975
733.0000      	13642.6    	0.94608
734.0000      	13624    	0.89871
735.0000      	13605.4    	0.82328
736.0000      	13587    	0.78811
737.0000      	13568.5    	0.84647
738.0000      	13550.1    	1.01458
739.0000      	13531.8    	0.97933
740.0000      	13513.5    	0.86995
741.0000      	13495.3    	0.80669
742.0000      	13477.1    	0.86159
743.0000      	13459    	1.00215
744.0000      	13440.9    	1.07081
745.0000      	13422.8    	1.00248
746.0000      	13404.8    	0.85383
747.0000      	13386.9    	0.84610
748.0000      	13369    	0.88127
749.0000      	13351.1    	0.96973
750.0000      	13333.3    	1.15725
751.0000      	13315.6    	1.17198
752.0000      	13297.9    	1.01150
753.0000      	13280.2    	0.89728
754.0000      	13262.6    	0.91951
755.0000      	13245    	1.12572
756.0000      	13227.5    	1.18243
757.0000      	13210    	1.11259
758.0000      	13192.6    	0.94712
759.0000      	13175.2    	0.99495
760.0000      	13157.9    	1.06456
761.0000      	13140.6    	1.16968
762.0000      	13123.4    	1.14366
763.0000      	13106.2    	0.99853
764.0000      	13089    	0.89605
765.0000      	13071.9    	0.88142
766.0000      	13054.8    	0.94106
767.0000      	13037.8    	0.96307
768.0000      	13020.8    	1.00602
769.0000      	13003.9    	1.02859
770.0000      	12987    	1.00482
771.0000      	12970.2    	1.11790
772.0000      	12953.4    	1.08038
773.0000      	12936.6    	1.23661
774.0000      	12919.9    	1.23035
775.0000      	12903.2    	1.19687
776.0000      	12886.6    	1.01341
777.0000      	12870    	0.90702
778.0000      	12853.5    	0.95003
779.0000      	12837    	1.28274
780.0000      	12820.5    	1.50014
781.0000      	12804.1    	1.36176
782.0000      	12787.7    	0.90980
783.0000      	12771.4    	0.84423
784.0000      	12755.1    	0.80104
785.0000      	12738.9    	1.02103
786.0000      	12722.6    	1.25522
787.0000      	12706.5    	1.20296
788.0000      	12690.4    	1.27363
789.0000      	12674.3    	0.98221
790.0000      	12658.2    	1.07537
791.0000      	12642.2    	1.20999
792.0000      	12626.3    	1.28938
793.0000      	12610.3    	1.26846
794.0000      	12594.5    	1.15837
795.0000      	12578.6    	1.11231
796.0000      	12562.8    	1.18691
797.0000      	12547.1    	1.36402
798.0000      	12531.3    	1.31620
799.0000      	12515.6    	1.12630
800.0000      	12500    	1.08654