File: data/Reflectance_measurements/Reflectance_2019_material/38_white/38_w_1.txt
Unit Serial No : 240-IM0P2424-EU
Integration Time : 10 ms
Time Average: 10
Binning Average: 2
FFT Smoothing: 0%
Project Name : RPS900-R
Sample Name :  SM240-IMOP2424-EU
Measurement No : 1
Measurement Time : 06/03/2019   15:03:17

Wavelength(nm)	Wavenumber(1/cm)	Transmittance(%)
300.0000      	33333.3    	14.24558
301.0000      	33222.6    	12.96889
302.0000      	33112.6    	13.21229
303.0000      	33003.3    	13.95957
304.0000      	32894.7    	12.83757
305.0000      	32786.9    	12.13296
306.0000      	32679.7    	11.88206
307.0000      	32573.3    	11.58996
308.0000      	32467.5    	12.09694
309.0000      	32362.5    	11.54051
310.0000      	32258.1    	10.36226
311.0000      	32154.3    	9.91890
312.0000      	32051.3    	9.80529
313.0000      	31948.9    	9.67484
314.0000      	31847.1    	9.51401
315.0000      	31746    	9.22517
316.0000      	31645.6    	9.35822
317.0000      	31545.7    	9.32656
318.0000      	31446.5    	9.40977
319.0000      	31348    	8.55905
320.0000      	31250    	8.26956
321.0000      	31152.6    	7.97054
322.0000      	31055.9    	8.11117
323.0000      	30959.8    	8.48097
324.0000      	30864.2    	8.39212
325.0000      	30769.2    	8.09806
326.0000      	30674.8    	7.53700
327.0000      	30581    	7.39450
328.0000      	30487.8    	7.28327
329.0000      	30395.1    	7.66910
330.0000      	30303    	7.71644
331.0000      	30211.5    	7.73041
332.0000      	30120.5    	7.65305
333.0000      	30030    	7.56376
334.0000      	29940.1    	7.48604
335.0000      	29850.7    	7.29627
336.0000      	29761.9    	6.91380
337.0000      	29673.6    	6.48407
338.0000      	29585.8    	6.98736
339.0000      	29498.5    	7.27744
340.0000      	29411.8    	7.52995
341.0000      	29325.5    	7.40168
342.0000      	29239.8    	7.52516
343.0000      	29154.5    	7.36152
344.0000      	29069.8    	7.01062
345.0000      	28985.5    	7.05372
346.0000      	28901.7    	7.30071
347.0000      	28818.4    	7.46319
348.0000      	28735.6    	7.48932
349.0000      	28653.3    	7.49240
350.0000      	28571.4    	7.46346
351.0000      	28490    	7.70605
352.0000      	28409.1    	7.78002
353.0000      	28328.6    	7.79497
354.0000      	28248.6    	7.74104
355.0000      	28169    	7.70711
356.0000      	28089.9    	8.15198
357.0000      	28011.2    	8.31166
358.0000      	27933    	8.48371
359.0000      	27855.2    	8.57121
360.0000      	27777.8    	8.55394
361.0000      	27700.8    	8.66015
362.0000      	27624.3    	8.95154
363.0000      	27548.2    	9.21505
364.0000      	27472.5    	9.10767
365.0000      	27397.3    	8.84521
366.0000      	27322.4    	8.85637
367.0000      	27248    	9.25954
368.0000      	27173.9    	9.66371
369.0000      	27100.3    	9.79274
370.0000      	27027    	9.60329
371.0000      	26954.2    	9.48749
372.0000      	26881.7    	9.72279
373.0000      	26809.7    	10.02708
374.0000      	26738    	10.36441
375.0000      	26666.7    	10.53041
376.0000      	26595.7    	10.95832
377.0000      	26525.2    	11.13859
378.0000      	26455    	11.17506
379.0000      	26385.2    	11.23162
380.0000      	26315.8    	11.57483
381.0000      	26246.7    	11.88379
382.0000      	26178    	12.08600
383.0000      	26109.7    	12.50715
384.0000      	26041.7    	12.87798
385.0000      	25974    	13.14086
386.0000      	25906.7    	13.19802
387.0000      	25839.8    	13.27946
388.0000      	25773.2    	13.48236
389.0000      	25706.9    	13.92679
390.0000      	25641    	14.42255
391.0000      	25575.4    	14.66932
392.0000      	25510.2    	14.84363
393.0000      	25445.3    	15.15558
394.0000      	25380.7    	15.46866
395.0000      	25316.5    	15.79779
396.0000      	25252.5    	16.26767
397.0000      	25188.9    	16.70658
398.0000      	25125.6    	17.00422
399.0000      	25062.7    	17.40053
400.0000      	25000    	17.85291
401.0000      	24937.7    	18.29344
402.0000      	24875.6    	18.54542
403.0000      	24813.9    	18.92408
404.0000      	24752.5    	19.32900
405.0000      	24691.4    	19.98745
406.0000      	24630.5    	20.46493
407.0000      	24570    	21.05710
408.0000      	24509.8    	21.62040
409.0000      	24449.9    	22.12904
410.0000      	24390.2    	22.59850
411.0000      	24330.9    	23.08314
412.0000      	24271.8    	23.38339
413.0000      	24213.1    	24.00430
414.0000      	24154.6    	24.55926
415.0000      	24096.4    	24.91568
416.0000      	24038.5    	25.30214
417.0000      	23980.8    	25.63066
418.0000      	23923.4    	25.76111
419.0000      	23866.3    	25.94503
420.0000      	23809.5    	26.13840
421.0000      	23753    	26.22952
422.0000      	23696.7    	26.42281
423.0000      	23640.7    	26.74281
424.0000      	23584.9    	27.10946
425.0000      	23529.4    	27.24163
426.0000      	23474.2    	27.38504
427.0000      	23419.2    	27.63700
428.0000      	23364.5    	27.87084
429.0000      	23310    	28.13173
430.0000      	23255.8    	28.21748
431.0000      	23201.9    	28.36272
432.0000      	23148.1    	28.42353
433.0000      	23094.7    	28.59490
434.0000      	23041.5    	28.93969
435.0000      	22988.5    	29.28735
436.0000      	22935.8    	29.43080
437.0000      	22883.3    	29.54317
438.0000      	22831.1    	29.53344
439.0000      	22779    	29.75762
440.0000      	22727.3    	30.06217
441.0000      	22675.7    	30.22457
442.0000      	22624.4    	30.22419
443.0000      	22573.4    	30.26848
444.0000      	22522.5    	30.33814
445.0000      	22471.9    	30.42963
446.0000      	22421.5    	30.41753
447.0000      	22371.4    	30.38870
448.0000      	22321.4    	30.29165
449.0000      	22271.7    	30.24967
450.0000      	22222.2    	30.17837
451.0000      	22172.9    	30.18838
452.0000      	22123.9    	30.38943
453.0000      	22075.1    	30.60650
454.0000      	22026.4    	30.84462
455.0000      	21978    	30.87713
456.0000      	21929.8    	30.96122
457.0000      	21881.8    	31.03955
458.0000      	21834.1    	31.22993
459.0000      	21786.5    	31.27281
460.0000      	21739.1    	31.32834
461.0000      	21692    	31.53893
462.0000      	21645    	31.60289
463.0000      	21598.3    	31.74571
464.0000      	21551.7    	31.86846
465.0000      	21505.4    	32.08993
466.0000      	21459.2    	32.31294
467.0000      	21413.3    	32.50443
468.0000      	21367.5    	32.68564
469.0000      	21322    	32.85501
470.0000      	21276.6    	32.91697
471.0000      	21231.4    	33.05042
472.0000      	21186.4    	33.37609
473.0000      	21141.6    	33.82018
474.0000      	21097    	34.11479
475.0000      	21052.6    	34.27504
476.0000      	21008.4    	34.49843
477.0000      	20964.4    	34.80150
478.0000      	20920.5    	34.96421
479.0000      	20876.8    	35.20726
480.0000      	20833.3    	35.45035
481.0000      	20790    	35.69893
482.0000      	20746.9    	35.99356
483.0000      	20703.9    	36.18618
484.0000      	20661.2    	36.42052
485.0000      	20618.6    	36.54936
486.0000      	20576.1    	36.91332
487.0000      	20533.9    	37.26400
488.0000      	20491.8    	37.56858
489.0000      	20449.9    	37.79840
490.0000      	20408.2    	38.07492
491.0000      	20366.6    	38.42903
492.0000      	20325.2    	38.61913
493.0000      	20284    	38.88470
494.0000      	20242.9    	39.02927
495.0000      	20202    	39.15733
496.0000      	20161.3    	39.35632
497.0000      	20120.7    	39.58290
498.0000      	20080.3    	39.76934
499.0000      	20040.1    	39.83945
500.0000      	20000    	39.92888
501.0000      	19960.1    	39.99496
502.0000      	19920.3    	40.11423
503.0000      	19880.7    	40.19951
504.0000      	19841.3    	40.25603
505.0000      	19802    	40.17988
506.0000      	19762.8    	40.13637
507.0000      	19723.9    	39.98143
508.0000      	19685    	39.79277
509.0000      	19646.4    	39.59167
510.0000      	19607.8    	39.37632
511.0000      	19569.5    	39.06496
512.0000      	19531.2    	38.62167
513.0000      	19493.2    	38.37446
514.0000      	19455.3    	37.95386
515.0000      	19417.5    	37.56189
516.0000      	19379.8    	37.09689
517.0000      	19342.4    	36.55327
518.0000      	19305    	35.94701
519.0000      	19267.8    	35.64139
520.0000      	19230.8    	35.05740
521.0000      	19193.9    	34.50004
522.0000      	19157.1    	33.93893
523.0000      	19120.5    	33.33609
524.0000      	19084    	32.72192
525.0000      	19047.6    	32.14995
526.0000      	19011.4    	31.88791
527.0000      	18975.3    	31.40385
528.0000      	18939.4    	30.91964
529.0000      	18903.6    	30.55757
530.0000      	18867.9    	30.21902
531.0000      	18832.4    	29.88072
532.0000      	18797    	29.60936
533.0000      	18761.7    	29.47260
534.0000      	18726.6    	29.23025
535.0000      	18691.6    	28.97889
536.0000      	18656.7    	28.77928
537.0000      	18622    	28.64682
538.0000      	18587.4    	28.55581
539.0000      	18552.9    	28.51370
540.0000      	18518.5    	28.45484
541.0000      	18484.3    	28.46803
542.0000      	18450.2    	28.51105
543.0000      	18416.2    	28.51439
544.0000      	18382.4    	28.41809
545.0000      	18348.6    	28.41452
546.0000      	18315    	28.43918
547.0000      	18281.5    	28.42095
548.0000      	18248.2    	28.36538
549.0000      	18214.9    	28.24375
550.0000      	18181.8    	28.08311
551.0000      	18148.8    	27.98573
552.0000      	18115.9    	27.77269
553.0000      	18083.2    	27.58792
554.0000      	18050.5    	27.34104
555.0000      	18018    	26.96960
556.0000      	17985.6    	26.54202
557.0000      	17953.3    	26.13335
558.0000      	17921.1    	25.95403
559.0000      	17889.1    	25.59663
560.0000      	17857.1    	25.17912
561.0000      	17825.3    	24.81038
562.0000      	17793.6    	24.45145
563.0000      	17762    	24.16761
564.0000      	17730.5    	24.00570
565.0000      	17699.1    	23.73529
566.0000      	17667.8    	23.46951
567.0000      	17636.7    	23.23782
568.0000      	17605.6    	23.04020
569.0000      	17574.7    	22.95744
570.0000      	17543.9    	22.96041
571.0000      	17513.1    	23.02542
572.0000      	17482.5    	23.14380
573.0000      	17452    	23.24628
574.0000      	17421.6    	23.45225
575.0000      	17391.3    	23.59781
576.0000      	17361.1    	24.00075
577.0000      	17331    	24.39767
578.0000      	17301    	24.87185
579.0000      	17271.2    	25.40389
580.0000      	17241.4    	25.89092
581.0000      	17211.7    	26.15688
582.0000      	17182.1    	26.70366
583.0000      	17152.7    	27.26490
584.0000      	17123.3    	27.92373
585.0000      	17094    	28.59978
586.0000      	17064.8    	29.14498
587.0000      	17035.8    	29.37560
588.0000      	17006.8    	29.89054
589.0000      	16977.9    	30.42367
590.0000      	16949.2    	30.90725
591.0000      	16920.5    	31.29058
592.0000      	16891.9    	31.59066
593.0000      	16863.4    	31.75980
594.0000      	16835    	32.02299
595.0000      	16806.7    	32.31443
596.0000      	16778.5    	32.50353
597.0000      	16750.4    	32.63411
598.0000      	16722.4    	32.72643
599.0000      	16694.5    	32.74621
600.0000      	16666.7    	32.80958
601.0000      	16638.9    	32.87735
602.0000      	16611.3    	32.92006
603.0000      	16583.7    	32.93950
604.0000      	16556.3    	32.88736
605.0000      	16528.9    	32.82312
606.0000      	16501.7    	32.88013
607.0000      	16474.5    	32.91164
608.0000      	16447.4    	32.84815
609.0000      	16420.4    	32.77931
610.0000      	16393.4    	32.76560
611.0000      	16366.6    	32.81656
612.0000      	16339.9    	32.83526
613.0000      	16313.2    	32.83523
614.0000      	16286.6    	32.80840
615.0000      	16260.2    	32.81942
616.0000      	16233.8    	32.74030
617.0000      	16207.5    	32.75554
618.0000      	16181.2    	32.73869
619.0000      	16155.1    	32.83144
620.0000      	16129    	32.85902
621.0000      	16103.1    	32.88384
622.0000      	16077.2    	32.74833
623.0000      	16051.4    	32.73795
624.0000      	16025.6    	32.81073
625.0000      	16000    	32.93786
626.0000      	15974.4    	32.94705
627.0000      	15949    	32.98841
628.0000      	15923.6    	33.11408
629.0000      	15898.3    	33.21182
630.0000      	15873    	33.19957
631.0000      	15847.9    	33.26082
632.0000      	15822.8    	33.31680
633.0000      	15797.8    	33.34107
634.0000      	15772.9    	33.39562
635.0000      	15748    	33.58728
636.0000      	15723.3    	33.71684
637.0000      	15698.6    	33.77904
638.0000      	15674    	33.77242
639.0000      	15649.5    	33.82917
640.0000      	15625    	33.99583
641.0000      	15600.6    	34.22374
642.0000      	15576.3    	34.39653
643.0000      	15552.1    	34.70295
644.0000      	15528    	34.93827
645.0000      	15503.9    	35.08965
646.0000      	15479.9    	35.27417
647.0000      	15456    	35.35502
648.0000      	15432.1    	35.59869
649.0000      	15408.3    	35.83562
650.0000      	15384.6    	36.11176
651.0000      	15361    	36.34661
652.0000      	15337.4    	36.67248
653.0000      	15313.9    	36.85355
654.0000      	15290.5    	37.09308
655.0000      	15267.2    	37.36934
656.0000      	15243.9    	37.69870
657.0000      	15220.7    	38.00367
658.0000      	15197.6    	38.14590
659.0000      	15174.5    	38.36066
660.0000      	15151.5    	38.73992
661.0000      	15128.6    	39.02096
662.0000      	15105.7    	39.25465
663.0000      	15083    	39.32179
664.0000      	15060.2    	39.41248
665.0000      	15037.6    	39.63368
666.0000      	15015    	39.91477
667.0000      	14992.5    	40.08335
668.0000      	14970.1    	40.12967
669.0000      	14947.7    	40.16420
670.0000      	14925.4    	40.21455
671.0000      	14903.1    	40.19144
672.0000      	14881    	40.20761
673.0000      	14858.8    	40.16844
674.0000      	14836.8    	40.03157
675.0000      	14814.8    	39.97488
676.0000      	14792.9    	39.94785
677.0000      	14771    	39.99127
678.0000      	14749.3    	40.00715
679.0000      	14727.5    	39.88837
680.0000      	14705.9    	39.67746
681.0000      	14684.3    	39.56462
682.0000      	14662.8    	39.53025
683.0000      	14641.3    	39.47009
684.0000      	14619.9    	39.36541
685.0000      	14598.5    	39.18277
686.0000      	14577.3    	39.06111
687.0000      	14556    	38.92752
688.0000      	14534.9    	38.90768
689.0000      	14513.8    	38.71805
690.0000      	14492.8    	38.67261
691.0000      	14471.8    	38.52470
692.0000      	14450.9    	38.30987
693.0000      	14430    	38.25957
694.0000      	14409.2    	38.34143
695.0000      	14388.5    	38.32685
696.0000      	14367.8    	38.06950
697.0000      	14347.2    	37.77076
698.0000      	14326.6    	37.74859
699.0000      	14306.2    	37.71247
700.0000      	14285.7    	37.58919
701.0000      	14265.3    	37.32529
702.0000      	14245    	37.13979
703.0000      	14224.8    	37.03247
704.0000      	14204.5    	36.85674
705.0000      	14184.4    	36.75484
706.0000      	14164.3    	36.58169
707.0000      	14144.3    	36.46119
708.0000      	14124.3    	36.37534
709.0000      	14104.4    	36.23980
710.0000      	14084.5    	36.20198
711.0000      	14064.7    	36.19961
712.0000      	14044.9    	36.05711
713.0000      	14025.2    	35.94865
714.0000      	14005.6    	35.73933
715.0000      	13986    	35.81681
716.0000      	13966.5    	36.03322
717.0000      	13947    	36.18369
718.0000      	13927.6    	36.21721
719.0000      	13908.2    	36.40097
720.0000      	13888.9    	36.65090
721.0000      	13869.6    	36.98684
722.0000      	13850.4    	37.35327
723.0000      	13831.3    	37.53235
724.0000      	13812.2    	37.83842
725.0000      	13793.1    	38.03305
726.0000      	13774.1    	38.33523
727.0000      	13755.2    	38.40031
728.0000      	13736.3    	38.50356
729.0000      	13717.4    	38.95796
730.0000      	13698.6    	39.48652
731.0000      	13679.9    	39.86063
732.0000      	13661.2    	40.04706
733.0000      	13642.6    	40.57076
734.0000      	13624    	41.21556
735.0000      	13605.4    	41.78012
736.0000      	13587    	42.17759
737.0000      	13568.5    	42.39484
738.0000      	13550.1    	42.98006
739.0000      	13531.8    	43.63372
740.0000      	13513.5    	44.34595
741.0000      	13495.3    	45.18340
742.0000      	13477.1    	45.62951
743.0000      	13459    	46.70710
744.0000      	13440.9    	47.68173
745.0000      	13422.8    	48.74960
746.0000      	13404.8    	49.61376
747.0000      	13386.9    	50.11726
748.0000      	13369    	51.12658
749.0000      	13351.1    	52.20723
750.0000      	13333.3    	53.50148
751.0000      	13315.6    	54.06070
752.0000      	13297.9    	55.20156
753.0000      	13280.2    	56.53133
754.0000      	13262.6    	57.85776
755.0000      	13245    	58.93689
756.0000      	13227.5    	59.44402
757.0000      	13210    	60.41988
758.0000      	13192.6    	61.41018
759.0000      	13175.2    	62.58765
760.0000      	13157.9    	63.66106
761.0000      	13140.6    	64.23985
762.0000      	13123.4    	64.97670
763.0000      	13106.2    	65.77281
764.0000      	13089    	66.57316
765.0000      	13071.9    	67.05666
766.0000      	13054.8    	67.78785
767.0000      	13037.8    	68.27834
768.0000      	13020.8    	68.73822
769.0000      	13003.9    	69.30122
770.0000      	12987    	69.48835
771.0000      	12970.2    	69.87972
772.0000      	12953.4    	70.04253
773.0000      	12936.6    	70.51450
774.0000      	12919.9    	70.66701
775.0000      	12903.2    	70.72958
776.0000      	12886.6    	70.79636
777.0000      	12870    	71.22720
778.0000      	12853.5    	71.63171
779.0000      	12837    	71.90110
780.0000      	12820.5    	71.93545
781.0000      	12804.1    	71.92082
782.0000      	12787.7    	71.98354
783.0000      	12771.4    	72.11256
784.0000      	12755.1    	72.13238
785.0000      	12738.9    	72.32184
786.0000      	12722.6    	72.37681
787.0000      	12706.5    	72.37127
788.0000      	12690.4    	72.64128
789.0000      	12674.3    	72.60175
790.0000      	12658.2    	72.80818
791.0000      	12642.2    	72.16451
792.0000      	12626.3    	71.97126
793.0000      	12610.3    	71.91795
794.0000      	12594.5    	72.52753
795.0000      	12578.6    	72.86925
796.0000      	12562.8    	72.59959
797.0000      	12547.1    	72.51946
798.0000      	12531.3    	72.23753
799.0000      	12515.6    	72.41713
800.0000      	12500    	72.68572