File: data/Reflectance_measurements/Reflectance_2019_material/38_white/38_w_3 .txt
Unit Serial No : 240-IM0P2424-EU
Integration Time : 10 ms
Time Average: 10
Binning Average: 2
FFT Smoothing: 0%
Project Name : RPS900-R
Sample Name :  SM240-IMOP2424-EU
Measurement No : 1
Measurement Time : 06/03/2019   15:03:55

Wavelength(nm)	Wavenumber(1/cm)	Transmittance(%)
300.0000      	33333.3    	14.37854
301.0000      	33222.6    	13.61958
302.0000      	33112.6    	12.95292
303.0000      	33003.3    	12.88869
304.0000      	32894.7    	12.18885
305.0000      	32786.9    	12.48231
306.0000      	32679.7    	12.02516
307.0000      	32573.3    	10.82445
308.0000      	32467.5    	11.19450
309.0000      	32362.5    	12.24867
310.0000      	32258.1    	11.77769
311.0000      	32154.3    	11.51933
312.0000      	32051.3    	10.38904
313.0000      	31948.9    	10.07381
314.0000      	31847.1    	9.66168
315.0000      	31746    	10.01159
316.0000      	31645.6    	9.87831
317.0000      	31545.7    	9.67219
318.0000      	31446.5    	9.56004
319.0000      	31348    	9.27324
320.0000      	31250    	9.56968
321.0000      	31152.6    	9.08364
322.0000      	31055.9    	8.58975
323.0000      	30959.8    	8.45548
324.0000      	30864.2    	8.40493
325.0000      	30769.2    	8.37415
326.0000      	30674.8    	8.27220
327.0000      	30581    	8.46407
328.0000      	30487.8    	7.81819
329.0000      	30395.1    	7.55858
330.0000      	30303    	7.57155
331.0000      	30211.5    	7.80753
332.0000      	30120.5    	8.30792
333.0000      	30030    	8.18760
334.0000      	29940.1    	7.98493
335.0000      	29850.7    	7.48918
336.0000      	29761.9    	7.46180
337.0000      	29673.6    	7.54930
338.0000      	29585.8    	7.56969
339.0000      	29498.5    	7.54868
340.0000      	29411.8    	7.48907
341.0000      	29325.5    	7.37397
342.0000      	29239.8    	7.75751
343.0000      	29154.5    	7.81178
344.0000      	29069.8    	7.55241
345.0000      	28985.5    	7.45122
346.0000      	28901.7    	7.67649
347.0000      	28818.4    	7.78435
348.0000      	28735.6    	7.98029
349.0000      	28653.3    	8.00215
350.0000      	28571.4    	8.12423
351.0000      	28490    	8.11807
352.0000      	28409.1    	8.14015
353.0000      	28328.6    	8.20776
354.0000      	28248.6    	8.32548
355.0000      	28169    	8.21659
356.0000      	28089.9    	8.48679
357.0000      	28011.2    	8.41057
358.0000      	27933    	8.50325
359.0000      	27855.2    	8.72579
360.0000      	27777.8    	9.02028
361.0000      	27700.8    	9.19232
362.0000      	27624.3    	9.04877
363.0000      	27548.2    	9.34632
364.0000      	27472.5    	9.57777
365.0000      	27397.3    	9.55328
366.0000      	27322.4    	9.65035
367.0000      	27248    	9.68502
368.0000      	27173.9    	9.86331
369.0000      	27100.3    	10.10999
370.0000      	27027    	10.31110
371.0000      	26954.2    	10.37863
372.0000      	26881.7    	10.62580
373.0000      	26809.7    	10.72896
374.0000      	26738    	10.81171
375.0000      	26666.7    	10.99159
376.0000      	26595.7    	11.43863
377.0000      	26525.2    	11.70401
378.0000      	26455    	11.97353
379.0000      	26385.2    	12.24068
380.0000      	26315.8    	12.62627
381.0000      	26246.7    	12.84101
382.0000      	26178    	12.95366
383.0000      	26109.7    	13.16994
384.0000      	26041.7    	13.27589
385.0000      	25974    	13.56294
386.0000      	25906.7    	13.87784
387.0000      	25839.8    	14.34941
388.0000      	25773.2    	14.69932
389.0000      	25706.9    	15.05151
390.0000      	25641    	15.32179
391.0000      	25575.4    	15.62741
392.0000      	25510.2    	15.86383
393.0000      	25445.3    	16.31048
394.0000      	25380.7    	16.60912
395.0000      	25316.5    	16.92402
396.0000      	25252.5    	17.27635
397.0000      	25188.9    	17.69183
398.0000      	25125.6    	18.24033
399.0000      	25062.7    	18.72786
400.0000      	25000    	19.03158
401.0000      	24937.7    	19.35991
402.0000      	24875.6    	19.59742
403.0000      	24813.9    	20.20286
404.0000      	24752.5    	20.83938
405.0000      	24691.4    	21.53458
406.0000      	24630.5    	21.93613
407.0000      	24570    	22.57858
408.0000      	24509.8    	23.18344
409.0000      	24449.9    	23.87774
410.0000      	24390.2    	24.43157
411.0000      	24330.9    	25.02597
412.0000      	24271.8    	25.30191
413.0000      	24213.1    	25.88487
414.0000      	24154.6    	26.33398
415.0000      	24096.4    	26.82157
416.0000      	24038.5    	27.27546
417.0000      	23980.8    	27.69746
418.0000      	23923.4    	27.93607
419.0000      	23866.3    	28.18973
420.0000      	23809.5    	28.42181
421.0000      	23753    	28.56202
422.0000      	23696.7    	28.81364
423.0000      	23640.7    	28.91099
424.0000      	23584.9    	29.06757
425.0000      	23529.4    	29.21795
426.0000      	23474.2    	29.54935
427.0000      	23419.2    	29.83892
428.0000      	23364.5    	30.14844
429.0000      	23310    	30.44683
430.0000      	23255.8    	30.54211
431.0000      	23201.9    	30.67911
432.0000      	23148.1    	30.85073
433.0000      	23094.7    	31.10916
434.0000      	23041.5    	31.30231
435.0000      	22988.5    	31.59250
436.0000      	22935.8    	31.91068
437.0000      	22883.3    	32.19550
438.0000      	22831.1    	32.24478
439.0000      	22779    	32.31710
440.0000      	22727.3    	32.48156
441.0000      	22675.7    	32.51521
442.0000      	22624.4    	32.62420
443.0000      	22573.4    	32.83136
444.0000      	22522.5    	32.84534
445.0000      	22471.9    	32.81448
446.0000      	22421.5    	32.75331
447.0000      	22371.4    	32.90535
448.0000      	22321.4    	32.96640
449.0000      	22271.7    	32.98747
450.0000      	22222.2    	32.82122
451.0000      	22172.9    	32.73919
452.0000      	22123.9    	33.02438
453.0000      	22075.1    	33.30593
454.0000      	22026.4    	33.56832
455.0000      	21978    	33.59900
456.0000      	21929.8    	33.65472
457.0000      	21881.8    	33.63507
458.0000      	21834.1    	33.72938
459.0000      	21786.5    	33.93394
460.0000      	21739.1    	34.13543
461.0000      	21692    	34.25847
462.0000      	21645    	34.27883
463.0000      	21598.3    	34.39882
464.0000      	21551.7    	34.57095
465.0000      	21505.4    	34.85244
466.0000      	21459.2    	34.97404
467.0000      	21413.3    	35.12492
468.0000      	21367.5    	35.31568
469.0000      	21322    	35.57425
470.0000      	21276.6    	35.74198
471.0000      	21231.4    	36.08339
472.0000      	21186.4    	36.36208
473.0000      	21141.6    	36.58044
474.0000      	21097    	36.92872
475.0000      	21052.6    	37.26447
476.0000      	21008.4    	37.52188
477.0000      	20964.4    	37.75248
478.0000      	20920.5    	37.89251
479.0000      	20876.8    	38.28969
480.0000      	20833.3    	38.64947
481.0000      	20790    	38.95053
482.0000      	20746.9    	39.23209
483.0000      	20703.9    	39.52911
484.0000      	20661.2    	39.75315
485.0000      	20618.6    	39.87160
486.0000      	20576.1    	40.13247
487.0000      	20533.9    	40.45223
488.0000      	20491.8    	40.76931
489.0000      	20449.9    	41.10385
490.0000      	20408.2    	41.41618
491.0000      	20366.6    	41.71815
492.0000      	20325.2    	41.92013
493.0000      	20284    	42.19300
494.0000      	20242.9    	42.43105
495.0000      	20202    	42.59092
496.0000      	20161.3    	42.86532
497.0000      	20120.7    	43.09543
498.0000      	20080.3    	43.33551
499.0000      	20040.1    	43.42564
500.0000      	20000    	43.57319
501.0000      	19960.1    	43.62310
502.0000      	19920.3    	43.68174
503.0000      	19880.7    	43.76577
504.0000      	19841.3    	43.85964
505.0000      	19802    	43.84048
506.0000      	19762.8    	43.75801
507.0000      	19723.9    	43.57444
508.0000      	19685    	43.37539
509.0000      	19646.4    	43.18709
510.0000      	19607.8    	42.87051
511.0000      	19569.5    	42.55307
512.0000      	19531.2    	42.06860
513.0000      	19493.2    	41.79989
514.0000      	19455.3    	41.27430
515.0000      	19417.5    	40.75349
516.0000      	19379.8    	40.25512
517.0000      	19342.4    	39.57536
518.0000      	19305    	38.88559
519.0000      	19267.8    	38.55350
520.0000      	19230.8    	37.94757
521.0000      	19193.9    	37.27663
522.0000      	19157.1    	36.63088
523.0000      	19120.5    	36.00726
524.0000      	19084    	35.37038
525.0000      	19047.6    	34.67742
526.0000      	19011.4    	34.40944
527.0000      	18975.3    	33.91096
528.0000      	18939.4    	33.45271
529.0000      	18903.6    	32.99969
530.0000      	18867.9    	32.56047
531.0000      	18832.4    	32.14434
532.0000      	18797    	31.83613
533.0000      	18761.7    	31.71171
534.0000      	18726.6    	31.50650
535.0000      	18691.6    	31.25067
536.0000      	18656.7    	31.02484
537.0000      	18622    	30.88217
538.0000      	18587.4    	30.81257
539.0000      	18552.9    	30.77085
540.0000      	18518.5    	30.70191
541.0000      	18484.3    	30.59108
542.0000      	18450.2    	30.59599
543.0000      	18416.2    	30.64076
544.0000      	18382.4    	30.64952
545.0000      	18348.6    	30.59597
546.0000      	18315    	30.51158
547.0000      	18281.5    	30.50480
548.0000      	18248.2    	30.51466
549.0000      	18214.9    	30.40631
550.0000      	18181.8    	30.22213
551.0000      	18148.8    	30.09420
552.0000      	18115.9    	29.84456
553.0000      	18083.2    	29.58647
554.0000      	18050.5    	29.34369
555.0000      	18018    	28.97491
556.0000      	17985.6    	28.53491
557.0000      	17953.3    	28.04680
558.0000      	17921.1    	27.83206
559.0000      	17889.1    	27.38155
560.0000      	17857.1    	26.96435
561.0000      	17825.3    	26.57769
562.0000      	17793.6    	26.23610
563.0000      	17762    	25.85312
564.0000      	17730.5    	25.66556
565.0000      	17699.1    	25.32421
566.0000      	17667.8    	25.08284
567.0000      	17636.7    	24.86203
568.0000      	17605.6    	24.73887
569.0000      	17574.7    	24.66544
570.0000      	17543.9    	24.63704
571.0000      	17513.1    	24.60523
572.0000      	17482.5    	24.67711
573.0000      	17452    	24.88247
574.0000      	17421.6    	25.18562
575.0000      	17391.3    	25.33804
576.0000      	17361.1    	25.63021
577.0000      	17331    	26.01247
578.0000      	17301    	26.52201
579.0000      	17271.2    	27.10920
580.0000      	17241.4    	27.71578
581.0000      	17211.7    	28.05362
582.0000      	17182.1    	28.74695
583.0000      	17152.7    	29.39330
584.0000      	17123.3    	30.07621
585.0000      	17094    	30.80266
586.0000      	17064.8    	31.44167
587.0000      	17035.8    	31.72676
588.0000      	17006.8    	32.24297
589.0000      	16977.9    	32.79839
590.0000      	16949.2    	33.33558
591.0000      	16920.5    	33.81738
592.0000      	16891.9    	34.18638
593.0000      	16863.4    	34.35146
594.0000      	16835    	34.62000
595.0000      	16806.7    	34.94356
596.0000      	16778.5    	35.16397
597.0000      	16750.4    	35.42455
598.0000      	16722.4    	35.58364
599.0000      	16694.5    	35.64083
600.0000      	16666.7    	35.65682
601.0000      	16638.9    	35.69860
602.0000      	16611.3    	35.73095
603.0000      	16583.7    	35.69214
604.0000      	16556.3    	35.62064
605.0000      	16528.9    	35.57504
606.0000      	16501.7    	35.62801
607.0000      	16474.5    	35.63645
608.0000      	16447.4    	35.58156
609.0000      	16420.4    	35.65545
610.0000      	16393.4    	35.66989
611.0000      	16366.6    	35.70008
612.0000      	16339.9    	35.60301
613.0000      	16313.2    	35.54199
614.0000      	16286.6    	35.54991
615.0000      	16260.2    	35.54449
616.0000      	16233.8    	35.52343
617.0000      	16207.5    	35.42810
618.0000      	16181.2    	35.43416
619.0000      	16155.1    	35.56435
620.0000      	16129    	35.65149
621.0000      	16103.1    	35.69460
622.0000      	16077.2    	35.62445
623.0000      	16051.4    	35.62386
624.0000      	16025.6    	35.63775
625.0000      	16000    	35.71842
626.0000      	15974.4    	35.74197
627.0000      	15949    	35.80764
628.0000      	15923.6    	35.84819
629.0000      	15898.3    	35.88612
630.0000      	15873    	35.86229
631.0000      	15847.9    	36.05038
632.0000      	15822.8    	36.11901
633.0000      	15797.8    	36.22228
634.0000      	15772.9    	36.19154
635.0000      	15748    	36.26393
636.0000      	15723.3    	36.42828
637.0000      	15698.6    	36.52918
638.0000      	15674    	36.70933
639.0000      	15649.5    	36.75908
640.0000      	15625    	36.86991
641.0000      	15600.6    	37.08696
642.0000      	15576.3    	37.25530
643.0000      	15552.1    	37.51753
644.0000      	15528    	37.71292
645.0000      	15503.9    	38.02908
646.0000      	15479.9    	38.38322
647.0000      	15456    	38.48294
648.0000      	15432.1    	38.71564
649.0000      	15408.3    	38.97778
650.0000      	15384.6    	39.36869
651.0000      	15361    	39.58307
652.0000      	15337.4    	39.84954
653.0000      	15313.9    	39.97692
654.0000      	15290.5    	40.30353
655.0000      	15267.2    	40.67892
656.0000      	15243.9    	41.08844
657.0000      	15220.7    	41.37369
658.0000      	15197.6    	41.52966
659.0000      	15174.5    	41.82142
660.0000      	15151.5    	42.23401
661.0000      	15128.6    	42.51739
662.0000      	15105.7    	42.81379
663.0000      	15083    	42.94249
664.0000      	15060.2    	43.07291
665.0000      	15037.6    	43.32303
666.0000      	15015    	43.70086
667.0000      	14992.5    	43.82018
668.0000      	14970.1    	43.82491
669.0000      	14947.7    	43.75955
670.0000      	14925.4    	43.85217
671.0000      	14903.1    	43.96099
672.0000      	14881    	43.95090
673.0000      	14858.8    	43.96327
674.0000      	14836.8    	43.88649
675.0000      	14814.8    	43.78000
676.0000      	14792.9    	43.65834
677.0000      	14771    	43.71639
678.0000      	14749.3    	43.69708
679.0000      	14727.5    	43.56221
680.0000      	14705.9    	43.37803
681.0000      	14684.3    	43.19303
682.0000      	14662.8    	43.08339
683.0000      	14641.3    	43.03303
684.0000      	14619.9    	43.02618
685.0000      	14598.5    	42.89940
686.0000      	14577.3    	42.70425
687.0000      	14556    	42.47318
688.0000      	14534.9    	42.41261
689.0000      	14513.8    	42.28214
690.0000      	14492.8    	42.19862
691.0000      	14471.8    	42.10923
692.0000      	14450.9    	41.95390
693.0000      	14430    	41.87737
694.0000      	14409.2    	41.65203
695.0000      	14388.5    	41.61766
696.0000      	14367.8    	41.56844
697.0000      	14347.2    	41.33295
698.0000      	14326.6    	41.14497
699.0000      	14306.2    	40.87199
700.0000      	14285.7    	40.80268
701.0000      	14265.3    	40.86065
702.0000      	14245    	40.69375
703.0000      	14224.8    	40.54894
704.0000      	14204.5    	40.14135
705.0000      	14184.4    	39.98927
706.0000      	14164.3    	39.76870
707.0000      	14144.3    	39.64602
708.0000      	14124.3    	39.56627
709.0000      	14104.4    	39.48816
710.0000      	14084.5    	39.37729
711.0000      	14064.7    	39.31301
712.0000      	14044.9    	39.16637
713.0000      	14025.2    	39.17444
714.0000      	14005.6    	39.18856
715.0000      	13986    	39.30108
716.0000      	13966.5    	39.35182
717.0000      	13947    	39.38745
718.0000      	13927.6    	39.45940
719.0000      	13908.2    	39.67376
720.0000      	13888.9    	40.01045
721.0000      	13869.6    	40.25668
722.0000      	13850.4    	40.62703
723.0000      	13831.3    	40.77065
724.0000      	13812.2    	41.31159
725.0000      	13793.1    	41.52909
726.0000      	13774.1    	41.98515
727.0000      	13755.2    	42.22852
728.0000      	13736.3    	42.40649
729.0000      	13717.4    	42.87593
730.0000      	13698.6    	43.28500
731.0000      	13679.9    	43.68200
732.0000      	13661.2    	43.88364
733.0000      	13642.6    	44.38638
734.0000      	13624    	44.96065
735.0000      	13605.4    	45.50452
736.0000      	13587    	46.09010
737.0000      	13568.5    	46.51974
738.0000      	13550.1    	47.39560
739.0000      	13531.8    	48.14980
740.0000      	13513.5    	48.86707
741.0000      	13495.3    	49.74718
742.0000      	13477.1    	50.21892
743.0000      	13459    	51.43762
744.0000      	13440.9    	52.41110
745.0000      	13422.8    	53.26921
746.0000      	13404.8    	54.25167
747.0000      	13386.9    	54.84731
748.0000      	13369    	56.16153
749.0000      	13351.1    	57.37318
750.0000      	13333.3    	58.78080
751.0000      	13315.6    	59.42866
752.0000      	13297.9    	60.73640
753.0000      	13280.2    	62.21529
754.0000      	13262.6    	63.70438
755.0000      	13245    	65.08318
756.0000      	13227.5    	65.64788
757.0000      	13210    	66.79575
758.0000      	13192.6    	67.88905
759.0000      	13175.2    	69.10624
760.0000      	13157.9    	70.54854
761.0000      	13140.6    	71.27548
762.0000      	13123.4    	72.40591
763.0000      	13106.2    	73.27206
764.0000      	13089    	74.19570
765.0000      	13071.9    	74.69640
766.0000      	13054.8    	75.52834
767.0000      	13037.8    	76.19791
768.0000      	13020.8    	76.66129
769.0000      	13003.9    	77.01430
770.0000      	12987    	77.18346
771.0000      	12970.2    	77.86405
772.0000      	12953.4    	78.35178
773.0000      	12936.6    	78.62419
774.0000      	12919.9    	78.76637
775.0000      	12903.2    	79.07363
776.0000      	12886.6    	79.27644
777.0000      	12870    	79.35500
778.0000      	12853.5    	79.47846
779.0000      	12837    	79.76084
780.0000      	12820.5    	79.87397
781.0000      	12804.1    	79.94457
782.0000      	12787.7    	80.02391
783.0000      	12771.4    	80.40782
784.0000      	12755.1    	80.51246
785.0000      	12738.9    	80.81316
786.0000      	12722.6    	80.86197
787.0000      	12706.5    	80.56512
788.0000      	12690.4    	80.70038
789.0000      	12674.3    	80.63423
790.0000      	12658.2    	81.23082
791.0000      	12642.2    	80.99411
792.0000      	12626.3    	80.69717
793.0000      	12610.3    	80.44563
794.0000      	12594.5    	80.56821
795.0000      	12578.6    	80.84854
796.0000      	12562.8    	81.10093
797.0000      	12547.1    	81.29153
798.0000      	12531.3    	81.20670
799.0000      	12515.6    	81.05193
800.0000      	12500    	81.13628