File: data/Reflectance_measurements/Reflectance_2019_material/38_white/38_w_2.txt
Unit Serial No : 240-IM0P2424-EU
Integration Time : 10 ms
Time Average: 10
Binning Average: 2
FFT Smoothing: 0%
Project Name : RPS900-R
Sample Name :  SM240-IMOP2424-EU
Measurement No : 1
Measurement Time : 06/03/2019   15:03:33

Wavelength(nm)	Wavenumber(1/cm)	Transmittance(%)
300.0000      	33333.3    	12.31772
301.0000      	33222.6    	11.61448
302.0000      	33112.6    	12.31431
303.0000      	33003.3    	12.42102
304.0000      	32894.7    	10.92423
305.0000      	32786.9    	10.16961
306.0000      	32679.7    	9.77554
307.0000      	32573.3    	10.06854
308.0000      	32467.5    	10.56371
309.0000      	32362.5    	10.39621
310.0000      	32258.1    	9.41674
311.0000      	32154.3    	9.88510
312.0000      	32051.3    	10.39548
313.0000      	31948.9    	10.15734
314.0000      	31847.1    	9.46438
315.0000      	31746    	8.55695
316.0000      	31645.6    	8.03661
317.0000      	31545.7    	7.87107
318.0000      	31446.5    	8.10050
319.0000      	31348    	7.66632
320.0000      	31250    	7.68647
321.0000      	31152.6    	6.91643
322.0000      	31055.9    	6.87636
323.0000      	30959.8    	6.93961
324.0000      	30864.2    	7.22204
325.0000      	30769.2    	7.13674
326.0000      	30674.8    	6.48289
327.0000      	30581    	6.46849
328.0000      	30487.8    	6.43451
329.0000      	30395.1    	7.02167
330.0000      	30303    	7.04418
331.0000      	30211.5    	6.66841
332.0000      	30120.5    	6.32948
333.0000      	30030    	6.27859
334.0000      	29940.1    	6.56388
335.0000      	29850.7    	6.56787
336.0000      	29761.9    	6.78923
337.0000      	29673.6    	6.62099
338.0000      	29585.8    	6.59454
339.0000      	29498.5    	6.48821
340.0000      	29411.8    	6.67708
341.0000      	29325.5    	6.81198
342.0000      	29239.8    	6.66616
343.0000      	29154.5    	6.49966
344.0000      	29069.8    	6.41094
345.0000      	28985.5    	6.51667
346.0000      	28901.7    	6.51275
347.0000      	28818.4    	6.61259
348.0000      	28735.6    	6.74593
349.0000      	28653.3    	6.74695
350.0000      	28571.4    	6.64971
351.0000      	28490    	6.86958
352.0000      	28409.1    	6.84586
353.0000      	28328.6    	6.85584
354.0000      	28248.6    	7.11033
355.0000      	28169    	7.05846
356.0000      	28089.9    	7.40338
357.0000      	28011.2    	7.38478
358.0000      	27933    	7.39450
359.0000      	27855.2    	7.44229
360.0000      	27777.8    	7.53747
361.0000      	27700.8    	7.72830
362.0000      	27624.3    	8.01576
363.0000      	27548.2    	8.16318
364.0000      	27472.5    	8.01481
365.0000      	27397.3    	8.01445
366.0000      	27322.4    	8.20146
367.0000      	27248    	8.31845
368.0000      	27173.9    	8.43454
369.0000      	27100.3    	8.55762
370.0000      	27027    	8.49742
371.0000      	26954.2    	8.50954
372.0000      	26881.7    	8.69422
373.0000      	26809.7    	9.01017
374.0000      	26738    	9.20107
375.0000      	26666.7    	9.21723
376.0000      	26595.7    	9.18797
377.0000      	26525.2    	9.30103
378.0000      	26455    	9.62560
379.0000      	26385.2    	9.90554
380.0000      	26315.8    	10.06170
381.0000      	26246.7    	10.08111
382.0000      	26178    	10.20960
383.0000      	26109.7    	10.40894
384.0000      	26041.7    	10.69599
385.0000      	25974    	11.05595
386.0000      	25906.7    	11.34714
387.0000      	25839.8    	11.58158
388.0000      	25773.2    	11.55084
389.0000      	25706.9    	11.82525
390.0000      	25641    	12.07423
391.0000      	25575.4    	12.28994
392.0000      	25510.2    	12.45838
393.0000      	25445.3    	12.74908
394.0000      	25380.7    	13.04550
395.0000      	25316.5    	13.31307
396.0000      	25252.5    	13.59925
397.0000      	25188.9    	13.81859
398.0000      	25125.6    	13.97911
399.0000      	25062.7    	14.31176
400.0000      	25000    	14.87687
401.0000      	24937.7    	15.44945
402.0000      	24875.6    	15.63675
403.0000      	24813.9    	15.92010
404.0000      	24752.5    	16.21942
405.0000      	24691.4    	16.86559
406.0000      	24630.5    	17.32521
407.0000      	24570    	17.66259
408.0000      	24509.8    	17.90943
409.0000      	24449.9    	18.22689
410.0000      	24390.2    	18.62908
411.0000      	24330.9    	19.21572
412.0000      	24271.8    	19.52410
413.0000      	24213.1    	20.08619
414.0000      	24154.6    	20.33970
415.0000      	24096.4    	20.55837
416.0000      	24038.5    	20.80037
417.0000      	23980.8    	21.00347
418.0000      	23923.4    	21.16960
419.0000      	23866.3    	21.34184
420.0000      	23809.5    	21.38464
421.0000      	23753    	21.46649
422.0000      	23696.7    	21.54903
423.0000      	23640.7    	21.76203
424.0000      	23584.9    	22.06297
425.0000      	23529.4    	22.29071
426.0000      	23474.2    	22.45393
427.0000      	23419.2    	22.61080
428.0000      	23364.5    	22.77560
429.0000      	23310    	22.87802
430.0000      	23255.8    	22.91591
431.0000      	23201.9    	22.94805
432.0000      	23148.1    	23.13645
433.0000      	23094.7    	23.33983
434.0000      	23041.5    	23.60077
435.0000      	22988.5    	23.89600
436.0000      	22935.8    	24.13100
437.0000      	22883.3    	24.33171
438.0000      	22831.1    	24.32722
439.0000      	22779    	24.29065
440.0000      	22727.3    	24.32478
441.0000      	22675.7    	24.45217
442.0000      	22624.4    	24.46180
443.0000      	22573.4    	24.46339
444.0000      	22522.5    	24.64237
445.0000      	22471.9    	24.77304
446.0000      	22421.5    	24.77443
447.0000      	22371.4    	24.68956
448.0000      	22321.4    	24.52060
449.0000      	22271.7    	24.61725
450.0000      	22222.2    	24.67820
451.0000      	22172.9    	24.73018
452.0000      	22123.9    	24.87525
453.0000      	22075.1    	24.94381
454.0000      	22026.4    	24.93780
455.0000      	21978    	24.94710
456.0000      	21929.8    	25.07558
457.0000      	21881.8    	25.21694
458.0000      	21834.1    	25.35822
459.0000      	21786.5    	25.44721
460.0000      	21739.1    	25.53682
461.0000      	21692    	25.63747
462.0000      	21645    	25.67810
463.0000      	21598.3    	25.77319
464.0000      	21551.7    	25.81962
465.0000      	21505.4    	25.96123
466.0000      	21459.2    	26.02598
467.0000      	21413.3    	26.17661
468.0000      	21367.5    	26.34480
469.0000      	21322    	26.50928
470.0000      	21276.6    	26.60398
471.0000      	21231.4    	26.77767
472.0000      	21186.4    	27.05014
473.0000      	21141.6    	27.24532
474.0000      	21097    	27.47318
475.0000      	21052.6    	27.66953
476.0000      	21008.4    	27.87009
477.0000      	20964.4    	28.00271
478.0000      	20920.5    	28.05730
479.0000      	20876.8    	28.25582
480.0000      	20833.3    	28.52623
481.0000      	20790    	28.81284
482.0000      	20746.9    	29.05025
483.0000      	20703.9    	29.23601
484.0000      	20661.2    	29.40831
485.0000      	20618.6    	29.50828
486.0000      	20576.1    	29.73486
487.0000      	20533.9    	29.97865
488.0000      	20491.8    	30.20618
489.0000      	20449.9    	30.41354
490.0000      	20408.2    	30.64762
491.0000      	20366.6    	30.87455
492.0000      	20325.2    	31.01361
493.0000      	20284    	31.19912
494.0000      	20242.9    	31.36364
495.0000      	20202    	31.48141
496.0000      	20161.3    	31.62292
497.0000      	20120.7    	31.72458
498.0000      	20080.3    	31.86776
499.0000      	20040.1    	31.94328
500.0000      	20000    	32.09193
501.0000      	19960.1    	32.19516
502.0000      	19920.3    	32.28188
503.0000      	19880.7    	32.33507
504.0000      	19841.3    	32.33135
505.0000      	19802    	32.26249
506.0000      	19762.8    	32.22346
507.0000      	19723.9    	32.12720
508.0000      	19685    	31.99245
509.0000      	19646.4    	31.81493
510.0000      	19607.8    	31.61817
511.0000      	19569.5    	31.38677
512.0000      	19531.2    	31.06845
513.0000      	19493.2    	30.88643
514.0000      	19455.3    	30.55138
515.0000      	19417.5    	30.23122
516.0000      	19379.8    	29.87045
517.0000      	19342.4    	29.40266
518.0000      	19305    	28.88378
519.0000      	19267.8    	28.65761
520.0000      	19230.8    	28.28866
521.0000      	19193.9    	27.86706
522.0000      	19157.1    	27.38249
523.0000      	19120.5    	26.87348
524.0000      	19084    	26.45644
525.0000      	19047.6    	26.03501
526.0000      	19011.4    	25.86662
527.0000      	18975.3    	25.52389
528.0000      	18939.4    	25.17016
529.0000      	18903.6    	24.88722
530.0000      	18867.9    	24.62331
531.0000      	18832.4    	24.39838
532.0000      	18797    	24.15094
533.0000      	18761.7    	24.03191
534.0000      	18726.6    	23.80483
535.0000      	18691.6    	23.60264
536.0000      	18656.7    	23.48210
537.0000      	18622    	23.42166
538.0000      	18587.4    	23.41013
539.0000      	18552.9    	23.38841
540.0000      	18518.5    	23.34804
541.0000      	18484.3    	23.31400
542.0000      	18450.2    	23.27662
543.0000      	18416.2    	23.28289
544.0000      	18382.4    	23.25957
545.0000      	18348.6    	23.25281
546.0000      	18315    	23.19387
547.0000      	18281.5    	23.15872
548.0000      	18248.2    	23.13551
549.0000      	18214.9    	23.08288
550.0000      	18181.8    	22.96599
551.0000      	18148.8    	22.87272
552.0000      	18115.9    	22.67282
553.0000      	18083.2    	22.54277
554.0000      	18050.5    	22.33743
555.0000      	18018    	22.06285
556.0000      	17985.6    	21.71487
557.0000      	17953.3    	21.42389
558.0000      	17921.1    	21.27697
559.0000      	17889.1    	21.02185
560.0000      	17857.1    	20.80332
561.0000      	17825.3    	20.56172
562.0000      	17793.6    	20.23898
563.0000      	17762    	19.89536
564.0000      	17730.5    	19.76415
565.0000      	17699.1    	19.52745
566.0000      	17667.8    	19.37948
567.0000      	17636.7    	19.20853
568.0000      	17605.6    	19.04922
569.0000      	17574.7    	18.97149
570.0000      	17543.9    	19.00268
571.0000      	17513.1    	19.05070
572.0000      	17482.5    	19.10939
573.0000      	17452    	19.14404
574.0000      	17421.6    	19.28444
575.0000      	17391.3    	19.41119
576.0000      	17361.1    	19.73649
577.0000      	17331    	20.10675
578.0000      	17301    	20.44532
579.0000      	17271.2    	20.80306
580.0000      	17241.4    	21.20033
581.0000      	17211.7    	21.46265
582.0000      	17182.1    	22.00950
583.0000      	17152.7    	22.46737
584.0000      	17123.3    	22.88034
585.0000      	17094    	23.36597
586.0000      	17064.8    	23.77308
587.0000      	17035.8    	23.99557
588.0000      	17006.8    	24.40637
589.0000      	16977.9    	24.85410
590.0000      	16949.2    	25.19878
591.0000      	16920.5    	25.50679
592.0000      	16891.9    	25.77113
593.0000      	16863.4    	25.88314
594.0000      	16835    	26.06464
595.0000      	16806.7    	26.25955
596.0000      	16778.5    	26.37827
597.0000      	16750.4    	26.49806
598.0000      	16722.4    	26.60595
599.0000      	16694.5    	26.61359
600.0000      	16666.7    	26.69528
601.0000      	16638.9    	26.73145
602.0000      	16611.3    	26.77945
603.0000      	16583.7    	26.71698
604.0000      	16556.3    	26.68229
605.0000      	16528.9    	26.64614
606.0000      	16501.7    	26.69935
607.0000      	16474.5    	26.68232
608.0000      	16447.4    	26.58779
609.0000      	16420.4    	26.59924
610.0000      	16393.4    	26.60293
611.0000      	16366.6    	26.68311
612.0000      	16339.9    	26.70865
613.0000      	16313.2    	26.66140
614.0000      	16286.6    	26.64548
615.0000      	16260.2    	26.59134
616.0000      	16233.8    	26.58547
617.0000      	16207.5    	26.62799
618.0000      	16181.2    	26.69420
619.0000      	16155.1    	26.72067
620.0000      	16129    	26.76261
621.0000      	16103.1    	26.74405
622.0000      	16077.2    	26.65676
623.0000      	16051.4    	26.65603
624.0000      	16025.6    	26.77096
625.0000      	16000    	26.82712
626.0000      	15974.4    	26.82527
627.0000      	15949    	26.85281
628.0000      	15923.6    	26.90630
629.0000      	15898.3    	26.96029
630.0000      	15873    	26.90077
631.0000      	15847.9    	26.95002
632.0000      	15822.8    	26.95225
633.0000      	15797.8    	26.97481
634.0000      	15772.9    	26.96809
635.0000      	15748    	27.13021
636.0000      	15723.3    	27.23115
637.0000      	15698.6    	27.31056
638.0000      	15674    	27.36730
639.0000      	15649.5    	27.37739
640.0000      	15625    	27.47095
641.0000      	15600.6    	27.68595
642.0000      	15576.3    	27.78359
643.0000      	15552.1    	27.94664
644.0000      	15528    	28.10574
645.0000      	15503.9    	28.27586
646.0000      	15479.9    	28.49779
647.0000      	15456    	28.60217
648.0000      	15432.1    	28.83867
649.0000      	15408.3    	28.95563
650.0000      	15384.6    	29.16837
651.0000      	15361    	29.38930
652.0000      	15337.4    	29.63795
653.0000      	15313.9    	29.73764
654.0000      	15290.5    	29.97227
655.0000      	15267.2    	30.23479
656.0000      	15243.9    	30.48575
657.0000      	15220.7    	30.68900
658.0000      	15197.6    	30.80913
659.0000      	15174.5    	30.97723
660.0000      	15151.5    	31.19895
661.0000      	15128.6    	31.34306
662.0000      	15105.7    	31.54269
663.0000      	15083    	31.61862
664.0000      	15060.2    	31.73425
665.0000      	15037.6    	31.87936
666.0000      	15015    	32.08833
667.0000      	14992.5    	32.18298
668.0000      	14970.1    	32.18791
669.0000      	14947.7    	32.22029
670.0000      	14925.4    	32.28889
671.0000      	14903.1    	32.36569
672.0000      	14881    	32.32388
673.0000      	14858.8    	32.25433
674.0000      	14836.8    	32.08830
675.0000      	14814.8    	32.09952
676.0000      	14792.9    	32.21291
677.0000      	14771    	32.26033
678.0000      	14749.3    	32.20978
679.0000      	14727.5    	32.10055
680.0000      	14705.9    	32.03953
681.0000      	14684.3    	32.06576
682.0000      	14662.8    	31.94661
683.0000      	14641.3    	31.84289
684.0000      	14619.9    	31.67463
685.0000      	14598.5    	31.52846
686.0000      	14577.3    	31.37120
687.0000      	14556    	31.21356
688.0000      	14534.9    	31.20128
689.0000      	14513.8    	31.15137
690.0000      	14492.8    	31.18974
691.0000      	14471.8    	31.12244
692.0000      	14450.9    	30.95637
693.0000      	14430    	30.94533
694.0000      	14409.2    	30.92453
695.0000      	14388.5    	30.82347
696.0000      	14367.8    	30.54922
697.0000      	14347.2    	30.46296
698.0000      	14326.6    	30.45359
699.0000      	14306.2    	30.40921
700.0000      	14285.7    	30.35339
701.0000      	14265.3    	30.26797
702.0000      	14245    	30.15661
703.0000      	14224.8    	30.12114
704.0000      	14204.5    	30.01303
705.0000      	14184.4    	29.87056
706.0000      	14164.3    	29.51210
707.0000      	14144.3    	29.38181
708.0000      	14124.3    	29.34311
709.0000      	14104.4    	29.38351
710.0000      	14084.5    	29.36967
711.0000      	14064.7    	29.34114
712.0000      	14044.9    	29.16036
713.0000      	14025.2    	29.08816
714.0000      	14005.6    	28.95879
715.0000      	13986    	29.02954
716.0000      	13966.5    	29.21591
717.0000      	13947    	29.44117
718.0000      	13927.6    	29.46892
719.0000      	13908.2    	29.60108
720.0000      	13888.9    	29.70334
721.0000      	13869.6    	29.90224
722.0000      	13850.4    	30.15950
723.0000      	13831.3    	30.31615
724.0000      	13812.2    	30.51575
725.0000      	13793.1    	30.61131
726.0000      	13774.1    	30.90777
727.0000      	13755.2    	31.11632
728.0000      	13736.3    	31.24306
729.0000      	13717.4    	31.60232
730.0000      	13698.6    	31.98084
731.0000      	13679.9    	32.17865
732.0000      	13661.2    	32.28073
733.0000      	13642.6    	32.58772
734.0000      	13624    	33.03463
735.0000      	13605.4    	33.53335
736.0000      	13587    	33.97768
737.0000      	13568.5    	34.24948
738.0000      	13550.1    	34.77891
739.0000      	13531.8    	35.07515
740.0000      	13513.5    	35.66161
741.0000      	13495.3    	36.26776
742.0000      	13477.1    	36.61966
743.0000      	13459    	37.34731
744.0000      	13440.9    	37.98953
745.0000      	13422.8    	38.64002
746.0000      	13404.8    	39.34684
747.0000      	13386.9    	39.72615
748.0000      	13369    	40.55178
749.0000      	13351.1    	41.34058
750.0000      	13333.3    	42.31846
751.0000      	13315.6    	42.73187
752.0000      	13297.9    	43.40536
753.0000      	13280.2    	44.35298
754.0000      	13262.6    	45.33493
755.0000      	13245    	46.22818
756.0000      	13227.5    	46.55254
757.0000      	13210    	47.38634
758.0000      	13192.6    	48.18910
759.0000      	13175.2    	49.17169
760.0000      	13157.9    	50.01939
761.0000      	13140.6    	50.45572
762.0000      	13123.4    	51.07384
763.0000      	13106.2    	51.49735
764.0000      	13089    	51.98439
765.0000      	13071.9    	52.24450
766.0000      	13054.8    	52.69132
767.0000      	13037.8    	52.96903
768.0000      	13020.8    	53.15923
769.0000      	13003.9    	53.58918
770.0000      	12987    	53.85286
771.0000      	12970.2    	54.29213
772.0000      	12953.4    	54.36461
773.0000      	12936.6    	54.49829
774.0000      	12919.9    	54.63180
775.0000      	12903.2    	54.95418
776.0000      	12886.6    	55.06454
777.0000      	12870    	55.20243
778.0000      	12853.5    	55.27631
779.0000      	12837    	55.53836
780.0000      	12820.5    	55.46413
781.0000      	12804.1    	55.55106
782.0000      	12787.7    	55.86395
783.0000      	12771.4    	56.09832
784.0000      	12755.1    	56.07391
785.0000      	12738.9    	55.91043
786.0000      	12722.6    	55.76877
787.0000      	12706.5    	55.72562
788.0000      	12690.4    	56.05395
789.0000      	12674.3    	56.27057
790.0000      	12658.2    	56.59873
791.0000      	12642.2    	56.00629
792.0000      	12626.3    	55.49257
793.0000      	12610.3    	55.29059
794.0000      	12594.5    	55.63374
795.0000      	12578.6    	56.07346
796.0000      	12562.8    	56.07054
797.0000      	12547.1    	56.07924
798.0000      	12531.3    	55.91637
799.0000      	12515.6    	56.12217
800.0000      	12500    	56.54710