File: data/Reflectance_measurements/Reflectance_2019_material/87_white/87_white.txt
Unit Serial No : 240-IM0P2424-EU
Integration Time : 10 ms
Time Average: 10
Binning Average: 2
FFT Smoothing: 0%
Project Name : RPS900-R
Sample Name :  SM240-IMOP2424-EU
Measurement No : 1
Measurement Time : 06/03/2019   14:38:14

Wavelength(nm)	Wavenumber(1/cm)	Transmittance(%)
300.0000      	33333.3    	7.53989
301.0000      	33222.6    	7.51861
302.0000      	33112.6    	7.97375
303.0000      	33003.3    	8.38567
304.0000      	32894.7    	9.91107
305.0000      	32786.9    	8.50146
306.0000      	32679.7    	7.55753
307.0000      	32573.3    	6.82874
308.0000      	32467.5    	7.62773
309.0000      	32362.5    	7.40538
310.0000      	32258.1    	7.14123
311.0000      	32154.3    	7.76426
312.0000      	32051.3    	7.21254
313.0000      	31948.9    	7.48928
314.0000      	31847.1    	7.61484
315.0000      	31746    	7.26030
316.0000      	31645.6    	6.66322
317.0000      	31545.7    	6.26959
318.0000      	31446.5    	6.51591
319.0000      	31348    	5.97318
320.0000      	31250    	6.57546
321.0000      	31152.6    	6.32468
322.0000      	31055.9    	6.27175
323.0000      	30959.8    	6.44838
324.0000      	30864.2    	6.27573
325.0000      	30769.2    	6.35338
326.0000      	30674.8    	6.31816
327.0000      	30581    	6.07927
328.0000      	30487.8    	5.41027
329.0000      	30395.1    	5.67006
330.0000      	30303    	6.09303
331.0000      	30211.5    	5.88872
332.0000      	30120.5    	5.47476
333.0000      	30030    	5.18364
334.0000      	29940.1    	5.37437
335.0000      	29850.7    	5.66656
336.0000      	29761.9    	5.82033
337.0000      	29673.6    	5.80503
338.0000      	29585.8    	5.67876
339.0000      	29498.5    	5.34550
340.0000      	29411.8    	5.11669
341.0000      	29325.5    	5.35881
342.0000      	29239.8    	5.74217
343.0000      	29154.5    	5.51333
344.0000      	29069.8    	5.42663
345.0000      	28985.5    	5.65517
346.0000      	28901.7    	5.74692
347.0000      	28818.4    	5.73814
348.0000      	28735.6    	5.65260
349.0000      	28653.3    	5.51045
350.0000      	28571.4    	5.32269
351.0000      	28490    	5.50642
352.0000      	28409.1    	5.50255
353.0000      	28328.6    	5.48113
354.0000      	28248.6    	5.39510
355.0000      	28169    	5.06089
356.0000      	28089.9    	5.18089
357.0000      	28011.2    	5.24153
358.0000      	27933    	5.47139
359.0000      	27855.2    	5.65405
360.0000      	27777.8    	5.63432
361.0000      	27700.8    	5.41956
362.0000      	27624.3    	5.48360
363.0000      	27548.2    	5.71340
364.0000      	27472.5    	5.70032
365.0000      	27397.3    	5.43121
366.0000      	27322.4    	5.36876
367.0000      	27248    	5.29651
368.0000      	27173.9    	5.25784
369.0000      	27100.3    	5.41649
370.0000      	27027    	5.41635
371.0000      	26954.2    	5.35911
372.0000      	26881.7    	5.32392
373.0000      	26809.7    	5.46074
374.0000      	26738    	5.50273
375.0000      	26666.7    	5.34317
376.0000      	26595.7    	5.27461
377.0000      	26525.2    	5.26951
378.0000      	26455    	5.37536
379.0000      	26385.2    	5.50150
380.0000      	26315.8    	5.68158
381.0000      	26246.7    	5.61960
382.0000      	26178    	5.56460
383.0000      	26109.7    	5.56218
384.0000      	26041.7    	5.62653
385.0000      	25974    	5.67229
386.0000      	25906.7    	5.61763
387.0000      	25839.8    	5.70615
388.0000      	25773.2    	5.60593
389.0000      	25706.9    	5.67649
390.0000      	25641    	5.83954
391.0000      	25575.4    	5.91971
392.0000      	25510.2    	5.97302
393.0000      	25445.3    	5.97568
394.0000      	25380.7    	5.92134
395.0000      	25316.5    	5.97933
396.0000      	25252.5    	6.09895
397.0000      	25188.9    	6.17146
398.0000      	25125.6    	6.17577
399.0000      	25062.7    	6.21004
400.0000      	25000    	6.24155
401.0000      	24937.7    	6.27366
402.0000      	24875.6    	6.32457
403.0000      	24813.9    	6.30762
404.0000      	24752.5    	6.29847
405.0000      	24691.4    	6.33347
406.0000      	24630.5    	6.31537
407.0000      	24570    	6.48449
408.0000      	24509.8    	6.50946
409.0000      	24449.9    	6.42728
410.0000      	24390.2    	6.46256
411.0000      	24330.9    	6.52364
412.0000      	24271.8    	6.59071
413.0000      	24213.1    	6.68073
414.0000      	24154.6    	6.75020
415.0000      	24096.4    	6.60946
416.0000      	24038.5    	6.52650
417.0000      	23980.8    	6.54586
418.0000      	23923.4    	6.65175
419.0000      	23866.3    	6.79621
420.0000      	23809.5    	6.73158
421.0000      	23753    	6.73644
422.0000      	23696.7    	6.65286
423.0000      	23640.7    	6.78655
424.0000      	23584.9    	6.95476
425.0000      	23529.4    	6.92948
426.0000      	23474.2    	6.91667
427.0000      	23419.2    	6.91053
428.0000      	23364.5    	6.93240
429.0000      	23310    	6.92790
430.0000      	23255.8    	6.95721
431.0000      	23201.9    	6.97381
432.0000      	23148.1    	6.99710
433.0000      	23094.7    	6.96746
434.0000      	23041.5    	6.92414
435.0000      	22988.5    	7.00309
436.0000      	22935.8    	7.14785
437.0000      	22883.3    	7.28701
438.0000      	22831.1    	7.26437
439.0000      	22779    	7.18502
440.0000      	22727.3    	7.20599
441.0000      	22675.7    	7.28733
442.0000      	22624.4    	7.34658
443.0000      	22573.4    	7.38316
444.0000      	22522.5    	7.42023
445.0000      	22471.9    	7.37885
446.0000      	22421.5    	7.35500
447.0000      	22371.4    	7.44949
448.0000      	22321.4    	7.43552
449.0000      	22271.7    	7.45001
450.0000      	22222.2    	7.37401
451.0000      	22172.9    	7.42959
452.0000      	22123.9    	7.51886
453.0000      	22075.1    	7.62769
454.0000      	22026.4    	7.65596
455.0000      	21978    	7.63715
456.0000      	21929.8    	7.62453
457.0000      	21881.8    	7.65662
458.0000      	21834.1    	7.69678
459.0000      	21786.5    	7.73381
460.0000      	21739.1    	7.74718
461.0000      	21692    	7.77677
462.0000      	21645    	7.78030
463.0000      	21598.3    	7.86488
464.0000      	21551.7    	7.95562
465.0000      	21505.4    	8.09376
466.0000      	21459.2    	8.10915
467.0000      	21413.3    	8.02346
468.0000      	21367.5    	8.08158
469.0000      	21322    	8.20061
470.0000      	21276.6    	8.25230
471.0000      	21231.4    	8.25469
472.0000      	21186.4    	8.31780
473.0000      	21141.6    	8.37605
474.0000      	21097    	8.47425
475.0000      	21052.6    	8.56198
476.0000      	21008.4    	8.67077
477.0000      	20964.4    	8.69784
478.0000      	20920.5    	8.69221
479.0000      	20876.8    	8.69884
480.0000      	20833.3    	8.78343
481.0000      	20790    	8.88116
482.0000      	20746.9    	8.96148
483.0000      	20703.9    	9.04428
484.0000      	20661.2    	9.13831
485.0000      	20618.6    	9.18102
486.0000      	20576.1    	9.24679
487.0000      	20533.9    	9.29256
488.0000      	20491.8    	9.36635
489.0000      	20449.9    	9.44599
490.0000      	20408.2    	9.47246
491.0000      	20366.6    	9.50703
492.0000      	20325.2    	9.53809
493.0000      	20284    	9.60244
494.0000      	20242.9    	9.65734
495.0000      	20202    	9.69857
496.0000      	20161.3    	9.76878
497.0000      	20120.7    	9.84637
498.0000      	20080.3    	9.87836
499.0000      	20040.1    	9.89660
500.0000      	20000    	9.89151
501.0000      	19960.1    	9.90440
502.0000      	19920.3    	9.93212
503.0000      	19880.7    	9.98111
504.0000      	19841.3    	10.04346
505.0000      	19802    	9.97939
506.0000      	19762.8    	9.91801
507.0000      	19723.9    	9.82434
508.0000      	19685    	9.79423
509.0000      	19646.4    	9.80463
510.0000      	19607.8    	9.76434
511.0000      	19569.5    	9.69678
512.0000      	19531.2    	9.58950
513.0000      	19493.2    	9.52653
514.0000      	19455.3    	9.40953
515.0000      	19417.5    	9.31084
516.0000      	19379.8    	9.17933
517.0000      	19342.4    	9.04688
518.0000      	19305    	8.88857
519.0000      	19267.8    	8.83527
520.0000      	19230.8    	8.71749
521.0000      	19193.9    	8.56915
522.0000      	19157.1    	8.44007
523.0000      	19120.5    	8.30026
524.0000      	19084    	8.19091
525.0000      	19047.6    	8.06147
526.0000      	19011.4    	8.01490
527.0000      	18975.3    	7.91414
528.0000      	18939.4    	7.79945
529.0000      	18903.6    	7.74787
530.0000      	18867.9    	7.69401
531.0000      	18832.4    	7.59029
532.0000      	18797    	7.50172
533.0000      	18761.7    	7.46865
534.0000      	18726.6    	7.41786
535.0000      	18691.6    	7.36299
536.0000      	18656.7    	7.30960
537.0000      	18622    	7.27138
538.0000      	18587.4    	7.25638
539.0000      	18552.9    	7.24562
540.0000      	18518.5    	7.24628
541.0000      	18484.3    	7.23767
542.0000      	18450.2    	7.23367
543.0000      	18416.2    	7.25431
544.0000      	18382.4    	7.20514
545.0000      	18348.6    	7.17301
546.0000      	18315    	7.13394
547.0000      	18281.5    	7.13032
548.0000      	18248.2    	7.10449
549.0000      	18214.9    	7.04806
550.0000      	18181.8    	7.05389
551.0000      	18148.8    	7.03016
552.0000      	18115.9    	6.97104
553.0000      	18083.2    	6.91012
554.0000      	18050.5    	6.84202
555.0000      	18018    	6.76969
556.0000      	17985.6    	6.68306
557.0000      	17953.3    	6.60772
558.0000      	17921.1    	6.58093
559.0000      	17889.1    	6.52559
560.0000      	17857.1    	6.45915
561.0000      	17825.3    	6.40685
562.0000      	17793.6    	6.32249
563.0000      	17762    	6.22998
564.0000      	17730.5    	6.19207
565.0000      	17699.1    	6.13542
566.0000      	17667.8    	6.13762
567.0000      	17636.7    	6.13569
568.0000      	17605.6    	6.11832
569.0000      	17574.7    	6.08250
570.0000      	17543.9    	6.07904
571.0000      	17513.1    	6.06641
572.0000      	17482.5    	6.10980
573.0000      	17452    	6.16542
574.0000      	17421.6    	6.19572
575.0000      	17391.3    	6.20736
576.0000      	17361.1    	6.24244
577.0000      	17331    	6.31664
578.0000      	17301    	6.43925
579.0000      	17271.2    	6.56807
580.0000      	17241.4    	6.63578
581.0000      	17211.7    	6.68696
582.0000      	17182.1    	6.81082
583.0000      	17152.7    	6.90120
584.0000      	17123.3    	6.98827
585.0000      	17094    	7.13652
586.0000      	17064.8    	7.27788
587.0000      	17035.8    	7.36128
588.0000      	17006.8    	7.48448
589.0000      	16977.9    	7.65190
590.0000      	16949.2    	7.76768
591.0000      	16920.5    	7.83671
592.0000      	16891.9    	7.88053
593.0000      	16863.4    	7.90311
594.0000      	16835    	7.94549
595.0000      	16806.7    	8.06725
596.0000      	16778.5    	8.15936
597.0000      	16750.4    	8.19082
598.0000      	16722.4    	8.20605
599.0000      	16694.5    	8.21523
600.0000      	16666.7    	8.25423
601.0000      	16638.9    	8.28941
602.0000      	16611.3    	8.32033
603.0000      	16583.7    	8.30696
604.0000      	16556.3    	8.27763
605.0000      	16528.9    	8.27052
606.0000      	16501.7    	8.32045
607.0000      	16474.5    	8.29551
608.0000      	16447.4    	8.28511
609.0000      	16420.4    	8.29612
610.0000      	16393.4    	8.29509
611.0000      	16366.6    	8.36820
612.0000      	16339.9    	8.40585
613.0000      	16313.2    	8.41171
614.0000      	16286.6    	8.34217
615.0000      	16260.2    	8.33127
616.0000      	16233.8    	8.30449
617.0000      	16207.5    	8.30085
618.0000      	16181.2    	8.30107
619.0000      	16155.1    	8.35798
620.0000      	16129    	8.35230
621.0000      	16103.1    	8.34186
622.0000      	16077.2    	8.31102
623.0000      	16051.4    	8.34014
624.0000      	16025.6    	8.38978
625.0000      	16000    	8.41718
626.0000      	15974.4    	8.41030
627.0000      	15949    	8.43295
628.0000      	15923.6    	8.45638
629.0000      	15898.3    	8.57716
630.0000      	15873    	8.56924
631.0000      	15847.9    	8.54382
632.0000      	15822.8    	8.52269
633.0000      	15797.8    	8.48964
634.0000      	15772.9    	8.51622
635.0000      	15748    	8.64001
636.0000      	15723.3    	8.68295
637.0000      	15698.6    	8.69537
638.0000      	15674    	8.68387
639.0000      	15649.5    	8.69958
640.0000      	15625    	8.71337
641.0000      	15600.6    	8.75501
642.0000      	15576.3    	8.76724
643.0000      	15552.1    	8.78889
644.0000      	15528    	8.79659
645.0000      	15503.9    	8.84304
646.0000      	15479.9    	8.93758
647.0000      	15456    	8.95276
648.0000      	15432.1    	9.01983
649.0000      	15408.3    	9.06429
650.0000      	15384.6    	9.09979
651.0000      	15361    	9.06565
652.0000      	15337.4    	9.08527
653.0000      	15313.9    	9.14194
654.0000      	15290.5    	9.26137
655.0000      	15267.2    	9.40277
656.0000      	15243.9    	9.43035
657.0000      	15220.7    	9.44802
658.0000      	15197.6    	9.48240
659.0000      	15174.5    	9.55884
660.0000      	15151.5    	9.70275
661.0000      	15128.6    	9.74404
662.0000      	15105.7    	9.71081
663.0000      	15083    	9.70367
664.0000      	15060.2    	9.74592
665.0000      	15037.6    	9.88343
666.0000      	15015    	9.96899
667.0000      	14992.5    	9.96811
668.0000      	14970.1    	9.99167
669.0000      	14947.7    	10.04576
670.0000      	14925.4    	10.06919
671.0000      	14903.1    	10.09029
672.0000      	14881    	10.08503
673.0000      	14858.8    	10.08148
674.0000      	14836.8    	10.03541
675.0000      	14814.8    	9.96268
676.0000      	14792.9    	9.96776
677.0000      	14771    	10.06835
678.0000      	14749.3    	10.10225
679.0000      	14727.5    	10.05534
680.0000      	14705.9    	9.98904
681.0000      	14684.3    	9.98061
682.0000      	14662.8    	9.94417
683.0000      	14641.3    	9.94644
684.0000      	14619.9    	9.97697
685.0000      	14598.5    	9.99424
686.0000      	14577.3    	9.89958
687.0000      	14556    	9.89002
688.0000      	14534.9    	9.89323
689.0000      	14513.8    	9.90350
690.0000      	14492.8    	9.82108
691.0000      	14471.8    	9.73847
692.0000      	14450.9    	9.71560
693.0000      	14430    	9.75296
694.0000      	14409.2    	9.73142
695.0000      	14388.5    	9.70246
696.0000      	14367.8    	9.71955
697.0000      	14347.2    	9.69452
698.0000      	14326.6    	9.67654
699.0000      	14306.2    	9.60375
700.0000      	14285.7    	9.60613
701.0000      	14265.3    	9.65514
702.0000      	14245    	9.66703
703.0000      	14224.8    	9.65643
704.0000      	14204.5    	9.56979
705.0000      	14184.4    	9.56275
706.0000      	14164.3    	9.39539
707.0000      	14144.3    	9.35110
708.0000      	14124.3    	9.35431
709.0000      	14104.4    	9.38659
710.0000      	14084.5    	9.31772
711.0000      	14064.7    	9.34626
712.0000      	14044.9    	9.30782
713.0000      	14025.2    	9.31637
714.0000      	14005.6    	9.27626
715.0000      	13986    	9.24360
716.0000      	13966.5    	9.24894
717.0000      	13947    	9.39150
718.0000      	13927.6    	9.49608
719.0000      	13908.2    	9.63620
720.0000      	13888.9    	9.65261
721.0000      	13869.6    	9.61647
722.0000      	13850.4    	9.76101
723.0000      	13831.3    	9.83766
724.0000      	13812.2    	10.10075
725.0000      	13793.1    	10.05898
726.0000      	13774.1    	10.07015
727.0000      	13755.2    	9.99551
728.0000      	13736.3    	10.01436
729.0000      	13717.4    	10.16400
730.0000      	13698.6    	10.32631
731.0000      	13679.9    	10.43558
732.0000      	13661.2    	10.49550
733.0000      	13642.6    	10.61209
734.0000      	13624    	10.79917
735.0000      	13605.4    	10.98006
736.0000      	13587    	11.05585
737.0000      	13568.5    	11.20944
738.0000      	13550.1    	11.45578
739.0000      	13531.8    	11.51599
740.0000      	13513.5    	11.71255
741.0000      	13495.3    	11.99031
742.0000      	13477.1    	12.16028
743.0000      	13459    	12.38589
744.0000      	13440.9    	12.66113
745.0000      	13422.8    	12.92912
746.0000      	13404.8    	13.14260
747.0000      	13386.9    	13.27894
748.0000      	13369    	13.72331
749.0000      	13351.1    	13.98322
750.0000      	13333.3    	14.29920
751.0000      	13315.6    	14.46474
752.0000      	13297.9    	14.80921
753.0000      	13280.2    	15.38767
754.0000      	13262.6    	15.88496
755.0000      	13245    	16.41013
756.0000      	13227.5    	16.52252
757.0000      	13210    	16.73910
758.0000      	13192.6    	16.94069
759.0000      	13175.2    	17.30678
760.0000      	13157.9    	17.77383
761.0000      	13140.6    	18.05605
762.0000      	13123.4    	18.34105
763.0000      	13106.2    	18.63000
764.0000      	13089    	19.00414
765.0000      	13071.9    	19.16256
766.0000      	13054.8    	19.28220
767.0000      	13037.8    	19.49114
768.0000      	13020.8    	19.79946
769.0000      	13003.9    	20.10433
770.0000      	12987    	20.27910
771.0000      	12970.2    	20.57376
772.0000      	12953.4    	20.69691
773.0000      	12936.6    	20.73694
774.0000      	12919.9    	20.82965
775.0000      	12903.2    	20.93367
776.0000      	12886.6    	21.13574
777.0000      	12870    	21.36767
778.0000      	12853.5    	21.51558
779.0000      	12837    	21.74502
780.0000      	12820.5    	21.78793
781.0000      	12804.1    	21.72334
782.0000      	12787.7    	21.72412
783.0000      	12771.4    	22.14986
784.0000      	12755.1    	22.26662
785.0000      	12738.9    	22.47015
786.0000      	12722.6    	22.14794
787.0000      	12706.5    	21.76960
788.0000      	12690.4    	21.93149
789.0000      	12674.3    	22.24376
790.0000      	12658.2    	22.56897
791.0000      	12642.2    	22.41592
792.0000      	12626.3    	22.23413
793.0000      	12610.3    	22.10717
794.0000      	12594.5    	22.27789
795.0000      	12578.6    	22.51617
796.0000      	12562.8    	22.53730
797.0000      	12547.1    	22.57083
798.0000      	12531.3    	22.36617
799.0000      	12515.6    	22.52554
800.0000      	12500    	22.95245