File: data/Reflectance_measurements/Reflectance_2019_material/87_white/87_white_3.txt
Unit Serial No : 240-IM0P2424-EU
Integration Time : 10 ms
Time Average: 10
Binning Average: 2
FFT Smoothing: 0%
Project Name : RPS900-R
Sample Name :  SM240-IMOP2424-EU
Measurement No : 1
Measurement Time : 06/03/2019   14:46:42

Wavelength(nm)	Wavenumber(1/cm)	Transmittance(%)
300.0000      	33333.3    	8.30117
301.0000      	33222.6    	8.42835
302.0000      	33112.6    	7.33317
303.0000      	33003.3    	7.33006
304.0000      	32894.7    	8.75214
305.0000      	32786.9    	7.20537
306.0000      	32679.7    	6.35951
307.0000      	32573.3    	6.47801
308.0000      	32467.5    	7.23023
309.0000      	32362.5    	7.88143
310.0000      	32258.1    	7.63820
311.0000      	32154.3    	7.07353
312.0000      	32051.3    	6.34657
313.0000      	31948.9    	7.52668
314.0000      	31847.1    	8.27453
315.0000      	31746    	7.80330
316.0000      	31645.6    	6.56415
317.0000      	31545.7    	5.90679
318.0000      	31446.5    	5.97056
319.0000      	31348    	5.79362
320.0000      	31250    	6.56758
321.0000      	31152.6    	6.30661
322.0000      	31055.9    	6.05347
323.0000      	30959.8    	6.03712
324.0000      	30864.2    	6.07331
325.0000      	30769.2    	6.40494
326.0000      	30674.8    	6.38552
327.0000      	30581    	6.12872
328.0000      	30487.8    	5.78132
329.0000      	30395.1    	5.86869
330.0000      	30303    	5.93801
331.0000      	30211.5    	6.34012
332.0000      	30120.5    	6.38411
333.0000      	30030    	6.06792
334.0000      	29940.1    	5.69215
335.0000      	29850.7    	5.41752
336.0000      	29761.9    	5.26918
337.0000      	29673.6    	5.46919
338.0000      	29585.8    	5.53543
339.0000      	29498.5    	5.39275
340.0000      	29411.8    	5.17461
341.0000      	29325.5    	5.26625
342.0000      	29239.8    	5.50711
343.0000      	29154.5    	5.38142
344.0000      	29069.8    	5.34857
345.0000      	28985.5    	5.30503
346.0000      	28901.7    	5.36523
347.0000      	28818.4    	5.47051
348.0000      	28735.6    	5.69754
349.0000      	28653.3    	5.46369
350.0000      	28571.4    	5.17565
351.0000      	28490    	5.05840
352.0000      	28409.1    	5.09643
353.0000      	28328.6    	5.37561
354.0000      	28248.6    	5.39223
355.0000      	28169    	5.02176
356.0000      	28089.9    	5.16288
357.0000      	28011.2    	5.07227
358.0000      	27933    	5.16545
359.0000      	27855.2    	5.37734
360.0000      	27777.8    	5.39432
361.0000      	27700.8    	5.24262
362.0000      	27624.3    	5.01832
363.0000      	27548.2    	5.21114
364.0000      	27472.5    	5.25331
365.0000      	27397.3    	5.19057
366.0000      	27322.4    	5.20195
367.0000      	27248    	5.31880
368.0000      	27173.9    	5.33085
369.0000      	27100.3    	5.28469
370.0000      	27027    	5.26534
371.0000      	26954.2    	5.20665
372.0000      	26881.7    	5.05682
373.0000      	26809.7    	5.08815
374.0000      	26738    	5.14617
375.0000      	26666.7    	5.17949
376.0000      	26595.7    	5.27800
377.0000      	26525.2    	5.43217
378.0000      	26455    	5.46268
379.0000      	26385.2    	5.47947
380.0000      	26315.8    	5.50405
381.0000      	26246.7    	5.55447
382.0000      	26178    	5.60336
383.0000      	26109.7    	5.52811
384.0000      	26041.7    	5.44484
385.0000      	25974    	5.66957
386.0000      	25906.7    	5.87803
387.0000      	25839.8    	5.78814
388.0000      	25773.2    	5.63158
389.0000      	25706.9    	5.72283
390.0000      	25641    	5.84322
391.0000      	25575.4    	5.81308
392.0000      	25510.2    	5.88309
393.0000      	25445.3    	6.00146
394.0000      	25380.7    	6.00821
395.0000      	25316.5    	5.99973
396.0000      	25252.5    	6.19311
397.0000      	25188.9    	6.25804
398.0000      	25125.6    	6.17180
399.0000      	25062.7    	6.14189
400.0000      	25000    	6.09421
401.0000      	24937.7    	6.15698
402.0000      	24875.6    	6.23780
403.0000      	24813.9    	6.36158
404.0000      	24752.5    	6.40307
405.0000      	24691.4    	6.53136
406.0000      	24630.5    	6.53105
407.0000      	24570    	6.55004
408.0000      	24509.8    	6.55455
409.0000      	24449.9    	6.53299
410.0000      	24390.2    	6.61008
411.0000      	24330.9    	6.69473
412.0000      	24271.8    	6.72390
413.0000      	24213.1    	6.77613
414.0000      	24154.6    	6.80156
415.0000      	24096.4    	6.76814
416.0000      	24038.5    	6.71329
417.0000      	23980.8    	6.74677
418.0000      	23923.4    	6.79537
419.0000      	23866.3    	6.90427
420.0000      	23809.5    	6.82679
421.0000      	23753    	6.83308
422.0000      	23696.7    	6.76296
423.0000      	23640.7    	6.83922
424.0000      	23584.9    	6.99244
425.0000      	23529.4    	7.02547
426.0000      	23474.2    	7.00665
427.0000      	23419.2    	6.93564
428.0000      	23364.5    	6.96826
429.0000      	23310    	7.05729
430.0000      	23255.8    	7.13537
431.0000      	23201.9    	7.14358
432.0000      	23148.1    	7.10805
433.0000      	23094.7    	7.09391
434.0000      	23041.5    	7.05283
435.0000      	22988.5    	7.12795
436.0000      	22935.8    	7.19221
437.0000      	22883.3    	7.25092
438.0000      	22831.1    	7.22361
439.0000      	22779    	7.23244
440.0000      	22727.3    	7.31286
441.0000      	22675.7    	7.30092
442.0000      	22624.4    	7.34246
443.0000      	22573.4    	7.52324
444.0000      	22522.5    	7.66064
445.0000      	22471.9    	7.56548
446.0000      	22421.5    	7.48975
447.0000      	22371.4    	7.54503
448.0000      	22321.4    	7.54820
449.0000      	22271.7    	7.57056
450.0000      	22222.2    	7.56874
451.0000      	22172.9    	7.58795
452.0000      	22123.9    	7.69115
453.0000      	22075.1    	7.78439
454.0000      	22026.4    	7.78260
455.0000      	21978    	7.75042
456.0000      	21929.8    	7.73197
457.0000      	21881.8    	7.76361
458.0000      	21834.1    	7.80394
459.0000      	21786.5    	7.88817
460.0000      	21739.1    	7.87084
461.0000      	21692    	7.83050
462.0000      	21645    	7.85127
463.0000      	21598.3    	7.98868
464.0000      	21551.7    	8.06906
465.0000      	21505.4    	8.17539
466.0000      	21459.2    	8.21741
467.0000      	21413.3    	8.18958
468.0000      	21367.5    	8.24247
469.0000      	21322    	8.34040
470.0000      	21276.6    	8.39201
471.0000      	21231.4    	8.41543
472.0000      	21186.4    	8.50503
473.0000      	21141.6    	8.54632
474.0000      	21097    	8.61788
475.0000      	21052.6    	8.65501
476.0000      	21008.4    	8.74007
477.0000      	20964.4    	8.80241
478.0000      	20920.5    	8.84668
479.0000      	20876.8    	8.92740
480.0000      	20833.3    	9.02347
481.0000      	20790    	9.04391
482.0000      	20746.9    	9.10850
483.0000      	20703.9    	9.15624
484.0000      	20661.2    	9.21608
485.0000      	20618.6    	9.24278
486.0000      	20576.1    	9.33834
487.0000      	20533.9    	9.41428
488.0000      	20491.8    	9.48765
489.0000      	20449.9    	9.55803
490.0000      	20408.2    	9.61114
491.0000      	20366.6    	9.70563
492.0000      	20325.2    	9.76538
493.0000      	20284    	9.82701
494.0000      	20242.9    	9.86789
495.0000      	20202    	9.88344
496.0000      	20161.3    	9.94534
497.0000      	20120.7    	9.98522
498.0000      	20080.3    	10.03230
499.0000      	20040.1    	10.07045
500.0000      	20000    	10.10422
501.0000      	19960.1    	10.15319
502.0000      	19920.3    	10.16437
503.0000      	19880.7    	10.17751
504.0000      	19841.3    	10.20140
505.0000      	19802    	10.15709
506.0000      	19762.8    	10.12635
507.0000      	19723.9    	10.06269
508.0000      	19685    	10.03561
509.0000      	19646.4    	9.98593
510.0000      	19607.8    	9.90383
511.0000      	19569.5    	9.85602
512.0000      	19531.2    	9.76110
513.0000      	19493.2    	9.68328
514.0000      	19455.3    	9.55407
515.0000      	19417.5    	9.45741
516.0000      	19379.8    	9.36673
517.0000      	19342.4    	9.23028
518.0000      	19305    	9.08788
519.0000      	19267.8    	9.03376
520.0000      	19230.8    	8.91497
521.0000      	19193.9    	8.78561
522.0000      	19157.1    	8.61693
523.0000      	19120.5    	8.45751
524.0000      	19084    	8.31693
525.0000      	19047.6    	8.18829
526.0000      	19011.4    	8.12140
527.0000      	18975.3    	8.03709
528.0000      	18939.4    	7.95702
529.0000      	18903.6    	7.87615
530.0000      	18867.9    	7.77874
531.0000      	18832.4    	7.70121
532.0000      	18797    	7.63753
533.0000      	18761.7    	7.58421
534.0000      	18726.6    	7.49097
535.0000      	18691.6    	7.42448
536.0000      	18656.7    	7.39084
537.0000      	18622    	7.36977
538.0000      	18587.4    	7.35468
539.0000      	18552.9    	7.32249
540.0000      	18518.5    	7.29537
541.0000      	18484.3    	7.26422
542.0000      	18450.2    	7.24443
543.0000      	18416.2    	7.26115
544.0000      	18382.4    	7.26289
545.0000      	18348.6    	7.25316
546.0000      	18315    	7.23891
547.0000      	18281.5    	7.25375
548.0000      	18248.2    	7.22509
549.0000      	18214.9    	7.14690
550.0000      	18181.8    	7.11938
551.0000      	18148.8    	7.10257
552.0000      	18115.9    	7.03234
553.0000      	18083.2    	6.97351
554.0000      	18050.5    	6.91270
555.0000      	18018    	6.84530
556.0000      	17985.6    	6.80463
557.0000      	17953.3    	6.74895
558.0000      	17921.1    	6.71313
559.0000      	17889.1    	6.57748
560.0000      	17857.1    	6.51468
561.0000      	17825.3    	6.47349
562.0000      	17793.6    	6.39370
563.0000      	17762    	6.30375
564.0000      	17730.5    	6.24248
565.0000      	17699.1    	6.18234
566.0000      	17667.8    	6.17212
567.0000      	17636.7    	6.17535
568.0000      	17605.6    	6.15016
569.0000      	17574.7    	6.12269
570.0000      	17543.9    	6.11315
571.0000      	17513.1    	6.09226
572.0000      	17482.5    	6.14547
573.0000      	17452    	6.18937
574.0000      	17421.6    	6.20719
575.0000      	17391.3    	6.23711
576.0000      	17361.1    	6.28302
577.0000      	17331    	6.35218
578.0000      	17301    	6.43828
579.0000      	17271.2    	6.59659
580.0000      	17241.4    	6.65320
581.0000      	17211.7    	6.71373
582.0000      	17182.1    	6.83366
583.0000      	17152.7    	6.96848
584.0000      	17123.3    	7.08902
585.0000      	17094    	7.24047
586.0000      	17064.8    	7.33797
587.0000      	17035.8    	7.39682
588.0000      	17006.8    	7.50359
589.0000      	16977.9    	7.65173
590.0000      	16949.2    	7.80244
591.0000      	16920.5    	7.89719
592.0000      	16891.9    	7.96062
593.0000      	16863.4    	7.99435
594.0000      	16835    	8.05131
595.0000      	16806.7    	8.14718
596.0000      	16778.5    	8.20611
597.0000      	16750.4    	8.27346
598.0000      	16722.4    	8.34313
599.0000      	16694.5    	8.34165
600.0000      	16666.7    	8.32835
601.0000      	16638.9    	8.31908
602.0000      	16611.3    	8.39501
603.0000      	16583.7    	8.40280
604.0000      	16556.3    	8.38842
605.0000      	16528.9    	8.36335
606.0000      	16501.7    	8.38070
607.0000      	16474.5    	8.35824
608.0000      	16447.4    	8.36602
609.0000      	16420.4    	8.38696
610.0000      	16393.4    	8.40135
611.0000      	16366.6    	8.45968
612.0000      	16339.9    	8.47786
613.0000      	16313.2    	8.45457
614.0000      	16286.6    	8.39914
615.0000      	16260.2    	8.40522
616.0000      	16233.8    	8.40829
617.0000      	16207.5    	8.45890
618.0000      	16181.2    	8.49019
619.0000      	16155.1    	8.53195
620.0000      	16129    	8.52715
621.0000      	16103.1    	8.51553
622.0000      	16077.2    	8.45332
623.0000      	16051.4    	8.45192
624.0000      	16025.6    	8.51261
625.0000      	16000    	8.59388
626.0000      	15974.4    	8.60970
627.0000      	15949    	8.55985
628.0000      	15923.6    	8.53729
629.0000      	15898.3    	8.61630
630.0000      	15873    	8.60475
631.0000      	15847.9    	8.61879
632.0000      	15822.8    	8.64007
633.0000      	15797.8    	8.71156
634.0000      	15772.9    	8.68331
635.0000      	15748    	8.73055
636.0000      	15723.3    	8.76692
637.0000      	15698.6    	8.81011
638.0000      	15674    	8.78025
639.0000      	15649.5    	8.78442
640.0000      	15625    	8.80357
641.0000      	15600.6    	8.82101
642.0000      	15576.3    	8.83288
643.0000      	15552.1    	8.91921
644.0000      	15528    	8.94503
645.0000      	15503.9    	8.98372
646.0000      	15479.9    	9.04019
647.0000      	15456    	9.06321
648.0000      	15432.1    	9.09769
649.0000      	15408.3    	9.12442
650.0000      	15384.6    	9.15563
651.0000      	15361    	9.19231
652.0000      	15337.4    	9.30223
653.0000      	15313.9    	9.38659
654.0000      	15290.5    	9.50419
655.0000      	15267.2    	9.58829
656.0000      	15243.9    	9.60561
657.0000      	15220.7    	9.67091
658.0000      	15197.6    	9.68496
659.0000      	15174.5    	9.71822
660.0000      	15151.5    	9.80521
661.0000      	15128.6    	9.85120
662.0000      	15105.7    	9.85865
663.0000      	15083    	9.86354
664.0000      	15060.2    	9.87791
665.0000      	15037.6    	9.99991
666.0000      	15015    	10.15485
667.0000      	14992.5    	10.11475
668.0000      	14970.1    	10.11998
669.0000      	14947.7    	10.09706
670.0000      	14925.4    	10.12527
671.0000      	14903.1    	10.15442
672.0000      	14881    	10.17420
673.0000      	14858.8    	10.17950
674.0000      	14836.8    	10.11007
675.0000      	14814.8    	10.09815
676.0000      	14792.9    	10.15289
677.0000      	14771    	10.21460
678.0000      	14749.3    	10.20459
679.0000      	14727.5    	10.15099
680.0000      	14705.9    	10.13334
681.0000      	14684.3    	10.14707
682.0000      	14662.8    	10.11884
683.0000      	14641.3    	10.08606
684.0000      	14619.9    	10.06989
685.0000      	14598.5    	10.02104
686.0000      	14577.3    	10.02408
687.0000      	14556    	10.03770
688.0000      	14534.9    	10.03788
689.0000      	14513.8    	9.97173
690.0000      	14492.8    	9.89496
691.0000      	14471.8    	9.84106
692.0000      	14450.9    	9.83803
693.0000      	14430    	9.87975
694.0000      	14409.2    	9.92078
695.0000      	14388.5    	9.86575
696.0000      	14367.8    	9.75026
697.0000      	14347.2    	9.68570
698.0000      	14326.6    	9.69823
699.0000      	14306.2    	9.70026
700.0000      	14285.7    	9.78977
701.0000      	14265.3    	9.81424
702.0000      	14245    	9.76712
703.0000      	14224.8    	9.69266
704.0000      	14204.5    	9.61027
705.0000      	14184.4    	9.61427
706.0000      	14164.3    	9.46785
707.0000      	14144.3    	9.42918
708.0000      	14124.3    	9.44648
709.0000      	14104.4    	9.51528
710.0000      	14084.5    	9.48105
711.0000      	14064.7    	9.43193
712.0000      	14044.9    	9.38132
713.0000      	14025.2    	9.36063
714.0000      	14005.6    	9.44846
715.0000      	13986    	9.48656
716.0000      	13966.5    	9.55971
717.0000      	13947    	9.58068
718.0000      	13927.6    	9.63025
719.0000      	13908.2    	9.69027
720.0000      	13888.9    	9.73716
721.0000      	13869.6    	9.82045
722.0000      	13850.4    	9.82195
723.0000      	13831.3    	9.89139
724.0000      	13812.2    	10.01180
725.0000      	13793.1    	10.17416
726.0000      	13774.1    	10.39064
727.0000      	13755.2    	10.24366
728.0000      	13736.3    	10.21089
729.0000      	13717.4    	10.19562
730.0000      	13698.6    	10.43114
731.0000      	13679.9    	10.55881
732.0000      	13661.2    	10.64802
733.0000      	13642.6    	10.67304
734.0000      	13624    	10.78576
735.0000      	13605.4    	11.06798
736.0000      	13587    	11.32415
737.0000      	13568.5    	11.43775
738.0000      	13550.1    	11.57764
739.0000      	13531.8    	11.63506
740.0000      	13513.5    	11.84025
741.0000      	13495.3    	12.17972
742.0000      	13477.1    	12.32562
743.0000      	13459    	12.71866
744.0000      	13440.9    	12.95804
745.0000      	13422.8    	13.23610
746.0000      	13404.8    	13.41330
747.0000      	13386.9    	13.61707
748.0000      	13369    	14.07413
749.0000      	13351.1    	14.32956
750.0000      	13333.3    	14.55360
751.0000      	13315.6    	14.75923
752.0000      	13297.9    	15.08178
753.0000      	13280.2    	15.65468
754.0000      	13262.6    	16.00508
755.0000      	13245    	16.53403
756.0000      	13227.5    	16.75432
757.0000      	13210    	17.12971
758.0000      	13192.6    	17.41401
759.0000      	13175.2    	17.95274
760.0000      	13157.9    	18.31853
761.0000      	13140.6    	18.61323
762.0000      	13123.4    	18.82398
763.0000      	13106.2    	19.20906
764.0000      	13089    	19.59641
765.0000      	13071.9    	19.80931
766.0000      	13054.8    	20.11606
767.0000      	13037.8    	20.24482
768.0000      	13020.8    	20.32269
769.0000      	13003.9    	20.51123
770.0000      	12987    	20.65898
771.0000      	12970.2    	21.19508
772.0000      	12953.4    	21.42388
773.0000      	12936.6    	21.67868
774.0000      	12919.9    	21.72770
775.0000      	12903.2    	21.80655
776.0000      	12886.6    	21.78425
777.0000      	12870    	21.75798
778.0000      	12853.5    	21.97638
779.0000      	12837    	22.24973
780.0000      	12820.5    	22.37906
781.0000      	12804.1    	22.15411
782.0000      	12787.7    	22.23643
783.0000      	12771.4    	22.54239
784.0000      	12755.1    	22.59826
785.0000      	12738.9    	22.58902
786.0000      	12722.6    	22.66393
787.0000      	12706.5    	22.59569
788.0000      	12690.4    	22.85298
789.0000      	12674.3    	23.02990
790.0000      	12658.2    	23.27570
791.0000      	12642.2    	23.09129
792.0000      	12626.3    	22.96541
793.0000      	12610.3    	22.88703
794.0000      	12594.5    	22.89710
795.0000      	12578.6    	22.99669
796.0000      	12562.8    	23.14842
797.0000      	12547.1    	23.32460
798.0000      	12531.3    	23.33232
799.0000      	12515.6    	23.36123
800.0000      	12500    	23.44911