File: data/Reflectance_measurements/Reflectance_2019_material/87_white/87_white_2.txt
Unit Serial No : 240-IM0P2424-EU
Integration Time : 10 ms
Time Average: 10
Binning Average: 2
FFT Smoothing: 0%
Project Name : RPS900-R
Sample Name :  SM240-IMOP2424-EU
Measurement No : 1
Measurement Time : 06/03/2019   14:46:26

Wavelength(nm)	Wavenumber(1/cm)	Transmittance(%)
300.0000      	33333.3    	8.74507
301.0000      	33222.6    	9.28098
302.0000      	33112.6    	7.34300
303.0000      	33003.3    	7.08764
304.0000      	32894.7    	8.58085
305.0000      	32786.9    	8.13988
306.0000      	32679.7    	8.42776
307.0000      	32573.3    	8.08751
308.0000      	32467.5    	7.77660
309.0000      	32362.5    	7.18658
310.0000      	32258.1    	7.08712
311.0000      	32154.3    	6.83293
312.0000      	32051.3    	6.13910
313.0000      	31948.9    	6.57042
314.0000      	31847.1    	6.79901
315.0000      	31746    	6.91624
316.0000      	31645.6    	6.74990
317.0000      	31545.7    	6.57550
318.0000      	31446.5    	6.40033
319.0000      	31348    	6.05839
320.0000      	31250    	6.69858
321.0000      	31152.6    	6.32944
322.0000      	31055.9    	6.58593
323.0000      	30959.8    	6.72168
324.0000      	30864.2    	6.04769
325.0000      	30769.2    	5.91180
326.0000      	30674.8    	6.10962
327.0000      	30581    	6.29382
328.0000      	30487.8    	5.92046
329.0000      	30395.1    	5.77834
330.0000      	30303    	5.70909
331.0000      	30211.5    	5.73943
332.0000      	30120.5    	5.97335
333.0000      	30030    	5.92065
334.0000      	29940.1    	6.06632
335.0000      	29850.7    	5.47753
336.0000      	29761.9    	5.11945
337.0000      	29673.6    	5.41086
338.0000      	29585.8    	5.66917
339.0000      	29498.5    	5.69257
340.0000      	29411.8    	5.49145
341.0000      	29325.5    	5.64645
342.0000      	29239.8    	5.77954
343.0000      	29154.5    	5.67542
344.0000      	29069.8    	5.46437
345.0000      	28985.5    	5.21888
346.0000      	28901.7    	5.14340
347.0000      	28818.4    	5.07440
348.0000      	28735.6    	5.20466
349.0000      	28653.3    	5.29626
350.0000      	28571.4    	5.22177
351.0000      	28490    	5.29308
352.0000      	28409.1    	5.22313
353.0000      	28328.6    	5.32623
354.0000      	28248.6    	5.44302
355.0000      	28169    	5.39489
356.0000      	28089.9    	5.62129
357.0000      	28011.2    	5.44234
358.0000      	27933    	5.39324
359.0000      	27855.2    	5.51795
360.0000      	27777.8    	5.67849
361.0000      	27700.8    	5.60054
362.0000      	27624.3    	5.41806
363.0000      	27548.2    	5.27553
364.0000      	27472.5    	5.14723
365.0000      	27397.3    	5.20590
366.0000      	27322.4    	5.42220
367.0000      	27248    	5.37747
368.0000      	27173.9    	5.28877
369.0000      	27100.3    	5.25457
370.0000      	27027    	5.28448
371.0000      	26954.2    	5.29684
372.0000      	26881.7    	5.45339
373.0000      	26809.7    	5.47024
374.0000      	26738    	5.37668
375.0000      	26666.7    	5.27655
376.0000      	26595.7    	5.47662
377.0000      	26525.2    	5.52100
378.0000      	26455    	5.46541
379.0000      	26385.2    	5.42386
380.0000      	26315.8    	5.43949
381.0000      	26246.7    	5.41039
382.0000      	26178    	5.45272
383.0000      	26109.7    	5.55608
384.0000      	26041.7    	5.48589
385.0000      	25974    	5.45137
386.0000      	25906.7    	5.56291
387.0000      	25839.8    	5.79272
388.0000      	25773.2    	5.70689
389.0000      	25706.9    	5.71909
390.0000      	25641    	5.77449
391.0000      	25575.4    	5.70464
392.0000      	25510.2    	5.76597
393.0000      	25445.3    	5.98857
394.0000      	25380.7    	6.11893
395.0000      	25316.5    	6.01196
396.0000      	25252.5    	6.02506
397.0000      	25188.9    	6.01627
398.0000      	25125.6    	6.05043
399.0000      	25062.7    	6.20650
400.0000      	25000    	6.27505
401.0000      	24937.7    	6.27283
402.0000      	24875.6    	6.25614
403.0000      	24813.9    	6.31007
404.0000      	24752.5    	6.42270
405.0000      	24691.4    	6.58013
406.0000      	24630.5    	6.45027
407.0000      	24570    	6.46225
408.0000      	24509.8    	6.45704
409.0000      	24449.9    	6.54154
410.0000      	24390.2    	6.74408
411.0000      	24330.9    	6.79265
412.0000      	24271.8    	6.75414
413.0000      	24213.1    	6.67685
414.0000      	24154.6    	6.65465
415.0000      	24096.4    	6.74639
416.0000      	24038.5    	6.81411
417.0000      	23980.8    	6.83854
418.0000      	23923.4    	6.76206
419.0000      	23866.3    	6.78298
420.0000      	23809.5    	6.76279
421.0000      	23753    	6.82943
422.0000      	23696.7    	6.82368
423.0000      	23640.7    	6.91369
424.0000      	23584.9    	6.99001
425.0000      	23529.4    	6.98967
426.0000      	23474.2    	7.07925
427.0000      	23419.2    	7.12886
428.0000      	23364.5    	7.11795
429.0000      	23310    	7.01695
430.0000      	23255.8    	7.03070
431.0000      	23201.9    	7.08771
432.0000      	23148.1    	7.17754
433.0000      	23094.7    	7.17799
434.0000      	23041.5    	7.19490
435.0000      	22988.5    	7.27920
436.0000      	22935.8    	7.36979
437.0000      	22883.3    	7.38705
438.0000      	22831.1    	7.35660
439.0000      	22779    	7.39184
440.0000      	22727.3    	7.43042
441.0000      	22675.7    	7.35516
442.0000      	22624.4    	7.28485
443.0000      	22573.4    	7.42356
444.0000      	22522.5    	7.52305
445.0000      	22471.9    	7.51594
446.0000      	22421.5    	7.46116
447.0000      	22371.4    	7.54686
448.0000      	22321.4    	7.50411
449.0000      	22271.7    	7.55909
450.0000      	22222.2    	7.59066
451.0000      	22172.9    	7.54861
452.0000      	22123.9    	7.56476
453.0000      	22075.1    	7.63386
454.0000      	22026.4    	7.75746
455.0000      	21978    	7.74701
456.0000      	21929.8    	7.73017
457.0000      	21881.8    	7.74897
458.0000      	21834.1    	7.80135
459.0000      	21786.5    	7.91329
460.0000      	21739.1    	7.94957
461.0000      	21692    	7.96442
462.0000      	21645    	7.95883
463.0000      	21598.3    	7.97230
464.0000      	21551.7    	7.99262
465.0000      	21505.4    	8.09464
466.0000      	21459.2    	8.13196
467.0000      	21413.3    	8.17983
468.0000      	21367.5    	8.25034
469.0000      	21322    	8.33256
470.0000      	21276.6    	8.38579
471.0000      	21231.4    	8.44009
472.0000      	21186.4    	8.47247
473.0000      	21141.6    	8.44004
474.0000      	21097    	8.51867
475.0000      	21052.6    	8.62551
476.0000      	21008.4    	8.72589
477.0000      	20964.4    	8.78836
478.0000      	20920.5    	8.80878
479.0000      	20876.8    	8.87427
480.0000      	20833.3    	8.95184
481.0000      	20790    	9.02364
482.0000      	20746.9    	9.11316
483.0000      	20703.9    	9.18316
484.0000      	20661.2    	9.24967
485.0000      	20618.6    	9.28261
486.0000      	20576.1    	9.35376
487.0000      	20533.9    	9.38837
488.0000      	20491.8    	9.44144
489.0000      	20449.9    	9.53974
490.0000      	20408.2    	9.63028
491.0000      	20366.6    	9.71294
492.0000      	20325.2    	9.76209
493.0000      	20284    	9.82709
494.0000      	20242.9    	9.88567
495.0000      	20202    	9.89396
496.0000      	20161.3    	9.93867
497.0000      	20120.7    	9.98206
498.0000      	20080.3    	10.04714
499.0000      	20040.1    	10.08914
500.0000      	20000    	10.15158
501.0000      	19960.1    	10.15537
502.0000      	19920.3    	10.13827
503.0000      	19880.7    	10.11333
504.0000      	19841.3    	10.16092
505.0000      	19802    	10.17355
506.0000      	19762.8    	10.15658
507.0000      	19723.9    	10.09842
508.0000      	19685    	10.05178
509.0000      	19646.4    	10.01229
510.0000      	19607.8    	9.93606
511.0000      	19569.5    	9.86048
512.0000      	19531.2    	9.74870
513.0000      	19493.2    	9.68284
514.0000      	19455.3    	9.57045
515.0000      	19417.5    	9.47716
516.0000      	19379.8    	9.36249
517.0000      	19342.4    	9.24582
518.0000      	19305    	9.09662
519.0000      	19267.8    	9.03484
520.0000      	19230.8    	8.89699
521.0000      	19193.9    	8.75275
522.0000      	19157.1    	8.63124
523.0000      	19120.5    	8.48366
524.0000      	19084    	8.33686
525.0000      	19047.6    	8.16941
526.0000      	19011.4    	8.10143
527.0000      	18975.3    	7.97820
528.0000      	18939.4    	7.87635
529.0000      	18903.6    	7.80602
530.0000      	18867.9    	7.73806
531.0000      	18832.4    	7.66150
532.0000      	18797    	7.58799
533.0000      	18761.7    	7.56522
534.0000      	18726.6    	7.53532
535.0000      	18691.6    	7.47561
536.0000      	18656.7    	7.40400
537.0000      	18622    	7.32762
538.0000      	18587.4    	7.30601
539.0000      	18552.9    	7.28959
540.0000      	18518.5    	7.28068
541.0000      	18484.3    	7.28307
542.0000      	18450.2    	7.26136
543.0000      	18416.2    	7.28621
544.0000      	18382.4    	7.26480
545.0000      	18348.6    	7.27006
546.0000      	18315    	7.26015
547.0000      	18281.5    	7.24327
548.0000      	18248.2    	7.21071
549.0000      	18214.9    	7.17621
550.0000      	18181.8    	7.14252
551.0000      	18148.8    	7.11607
552.0000      	18115.9    	7.02341
553.0000      	18083.2    	6.95874
554.0000      	18050.5    	6.89012
555.0000      	18018    	6.81188
556.0000      	17985.6    	6.72238
557.0000      	17953.3    	6.67626
558.0000      	17921.1    	6.65635
559.0000      	17889.1    	6.56485
560.0000      	17857.1    	6.44820
561.0000      	17825.3    	6.35585
562.0000      	17793.6    	6.32234
563.0000      	17762    	6.29718
564.0000      	17730.5    	6.27252
565.0000      	17699.1    	6.21688
566.0000      	17667.8    	6.17958
567.0000      	17636.7    	6.13840
568.0000      	17605.6    	6.11383
569.0000      	17574.7    	6.12922
570.0000      	17543.9    	6.14755
571.0000      	17513.1    	6.14300
572.0000      	17482.5    	6.19263
573.0000      	17452    	6.22387
574.0000      	17421.6    	6.25689
575.0000      	17391.3    	6.27118
576.0000      	17361.1    	6.33452
577.0000      	17331    	6.40329
578.0000      	17301    	6.45255
579.0000      	17271.2    	6.54942
580.0000      	17241.4    	6.66576
581.0000      	17211.7    	6.75350
582.0000      	17182.1    	6.87518
583.0000      	17152.7    	6.94520
584.0000      	17123.3    	7.05351
585.0000      	17094    	7.20875
586.0000      	17064.8    	7.33910
587.0000      	17035.8    	7.40677
588.0000      	17006.8    	7.52505
589.0000      	16977.9    	7.65519
590.0000      	16949.2    	7.77012
591.0000      	16920.5    	7.88600
592.0000      	16891.9    	8.00843
593.0000      	16863.4    	8.05652
594.0000      	16835    	8.08768
595.0000      	16806.7    	8.13005
596.0000      	16778.5    	8.17684
597.0000      	16750.4    	8.26555
598.0000      	16722.4    	8.34766
599.0000      	16694.5    	8.34840
600.0000      	16666.7    	8.38632
601.0000      	16638.9    	8.35413
602.0000      	16611.3    	8.39551
603.0000      	16583.7    	8.38523
604.0000      	16556.3    	8.37945
605.0000      	16528.9    	8.34256
606.0000      	16501.7    	8.36697
607.0000      	16474.5    	8.34308
608.0000      	16447.4    	8.35317
609.0000      	16420.4    	8.41333
610.0000      	16393.4    	8.43774
611.0000      	16366.6    	8.45105
612.0000      	16339.9    	8.39135
613.0000      	16313.2    	8.35396
614.0000      	16286.6    	8.36537
615.0000      	16260.2    	8.37845
616.0000      	16233.8    	8.41915
617.0000      	16207.5    	8.44262
618.0000      	16181.2    	8.40930
619.0000      	16155.1    	8.43756
620.0000      	16129    	8.48663
621.0000      	16103.1    	8.48386
622.0000      	16077.2    	8.39795
623.0000      	16051.4    	8.38588
624.0000      	16025.6    	8.46863
625.0000      	16000    	8.54195
626.0000      	15974.4    	8.55327
627.0000      	15949    	8.56282
628.0000      	15923.6    	8.56997
629.0000      	15898.3    	8.57730
630.0000      	15873    	8.52923
631.0000      	15847.9    	8.54873
632.0000      	15822.8    	8.56022
633.0000      	15797.8    	8.58437
634.0000      	15772.9    	8.62306
635.0000      	15748    	8.74487
636.0000      	15723.3    	8.77188
637.0000      	15698.6    	8.77284
638.0000      	15674    	8.73471
639.0000      	15649.5    	8.75432
640.0000      	15625    	8.76618
641.0000      	15600.6    	8.75041
642.0000      	15576.3    	8.79280
643.0000      	15552.1    	8.92437
644.0000      	15528    	8.98224
645.0000      	15503.9    	8.99329
646.0000      	15479.9    	9.05122
647.0000      	15456    	9.07559
648.0000      	15432.1    	9.08105
649.0000      	15408.3    	9.14416
650.0000      	15384.6    	9.27839
651.0000      	15361    	9.30257
652.0000      	15337.4    	9.33358
653.0000      	15313.9    	9.36602
654.0000      	15290.5    	9.44146
655.0000      	15267.2    	9.48986
656.0000      	15243.9    	9.56318
657.0000      	15220.7    	9.63412
658.0000      	15197.6    	9.66315
659.0000      	15174.5    	9.72736
660.0000      	15151.5    	9.84853
661.0000      	15128.6    	9.89707
662.0000      	15105.7    	9.95187
663.0000      	15083    	9.99613
664.0000      	15060.2    	10.05624
665.0000      	15037.6    	10.14450
666.0000      	15015    	10.12637
667.0000      	14992.5    	10.09350
668.0000      	14970.1    	10.09484
669.0000      	14947.7    	10.10745
670.0000      	14925.4    	10.12629
671.0000      	14903.1    	10.13976
672.0000      	14881    	10.22412
673.0000      	14858.8    	10.26196
674.0000      	14836.8    	10.24251
675.0000      	14814.8    	10.22761
676.0000      	14792.9    	10.17986
677.0000      	14771    	10.23606
678.0000      	14749.3    	10.22891
679.0000      	14727.5    	10.26565
680.0000      	14705.9    	10.20705
681.0000      	14684.3    	10.16591
682.0000      	14662.8    	10.13134
683.0000      	14641.3    	10.10747
684.0000      	14619.9    	10.14449
685.0000      	14598.5    	10.14314
686.0000      	14577.3    	10.09497
687.0000      	14556    	10.01066
688.0000      	14534.9    	9.95528
689.0000      	14513.8    	9.84510
690.0000      	14492.8    	9.90914
691.0000      	14471.8    	10.00043
692.0000      	14450.9    	9.97733
693.0000      	14430    	9.95675
694.0000      	14409.2    	9.89479
695.0000      	14388.5    	9.82526
696.0000      	14367.8    	9.79681
697.0000      	14347.2    	9.79088
698.0000      	14326.6    	9.79416
699.0000      	14306.2    	9.76520
700.0000      	14285.7    	9.69183
701.0000      	14265.3    	9.66041
702.0000      	14245    	9.65588
703.0000      	14224.8    	9.67351
704.0000      	14204.5    	9.65315
705.0000      	14184.4    	9.68267
706.0000      	14164.3    	9.47596
707.0000      	14144.3    	9.38766
708.0000      	14124.3    	9.38508
709.0000      	14104.4    	9.40139
710.0000      	14084.5    	9.38795
711.0000      	14064.7    	9.38211
712.0000      	14044.9    	9.37665
713.0000      	14025.2    	9.38607
714.0000      	14005.6    	9.39874
715.0000      	13986    	9.40107
716.0000      	13966.5    	9.42495
717.0000      	13947    	9.42356
718.0000      	13927.6    	9.40963
719.0000      	13908.2    	9.53021
720.0000      	13888.9    	9.71874
721.0000      	13869.6    	9.87751
722.0000      	13850.4    	9.83905
723.0000      	13831.3    	9.86573
724.0000      	13812.2    	9.98841
725.0000      	13793.1    	10.00265
726.0000      	13774.1    	10.16823
727.0000      	13755.2    	10.26640
728.0000      	13736.3    	10.26740
729.0000      	13717.4    	10.27924
730.0000      	13698.6    	10.32175
731.0000      	13679.9    	10.53953
732.0000      	13661.2    	10.66757
733.0000      	13642.6    	10.84960
734.0000      	13624    	11.00664
735.0000      	13605.4    	11.05229
736.0000      	13587    	11.13295
737.0000      	13568.5    	11.25793
738.0000      	13550.1    	11.64933
739.0000      	13531.8    	11.82157
740.0000      	13513.5    	12.01800
741.0000      	13495.3    	12.29574
742.0000      	13477.1    	12.42529
743.0000      	13459    	12.66445
744.0000      	13440.9    	13.00604
745.0000      	13422.8    	13.38969
746.0000      	13404.8    	13.58282
747.0000      	13386.9    	13.67998
748.0000      	13369    	14.01901
749.0000      	13351.1    	14.40536
750.0000      	13333.3    	14.81582
751.0000      	13315.6    	14.91894
752.0000      	13297.9    	15.15561
753.0000      	13280.2    	15.75617
754.0000      	13262.6    	16.27020
755.0000      	13245    	16.61179
756.0000      	13227.5    	16.78166
757.0000      	13210    	17.16769
758.0000      	13192.6    	17.50430
759.0000      	13175.2    	18.04588
760.0000      	13157.9    	18.51055
761.0000      	13140.6    	18.82380
762.0000      	13123.4    	19.11972
763.0000      	13106.2    	19.49347
764.0000      	13089    	19.71576
765.0000      	13071.9    	19.84886
766.0000      	13054.8    	20.07705
767.0000      	13037.8    	20.31018
768.0000      	13020.8    	20.57072
769.0000      	13003.9    	20.78331
770.0000      	12987    	20.88241
771.0000      	12970.2    	21.13234
772.0000      	12953.4    	21.25964
773.0000      	12936.6    	21.55297
774.0000      	12919.9    	21.69347
775.0000      	12903.2    	21.86673
776.0000      	12886.6    	21.79086
777.0000      	12870    	21.95019
778.0000      	12853.5    	22.09928
779.0000      	12837    	22.38690
780.0000      	12820.5    	22.37836
781.0000      	12804.1    	22.42696
782.0000      	12787.7    	22.46606
783.0000      	12771.4    	22.68499
784.0000      	12755.1    	22.72716
785.0000      	12738.9    	22.73845
786.0000      	12722.6    	22.82816
787.0000      	12706.5    	22.73697
788.0000      	12690.4    	22.80725
789.0000      	12674.3    	22.59530
790.0000      	12658.2    	22.86889
791.0000      	12642.2    	23.02463
792.0000      	12626.3    	23.02304
793.0000      	12610.3    	22.87245
794.0000      	12594.5    	22.83393
795.0000      	12578.6    	22.96528
796.0000      	12562.8    	23.24983
797.0000      	12547.1    	23.46812
798.0000      	12531.3    	23.47840
799.0000      	12515.6    	23.47449
800.0000      	12500    	23.29108