File: data/Reflectance_measurements/Reflectance_2019_material/6/6_2.txt
Unit Serial No : 240-IM0P2424-EU
Integration Time : 10 ms
Time Average: 10
Binning Average: 2
FFT Smoothing: 0%
Project Name : RPS900-R
Sample Name :  SM240-IMOP2424-EU
Measurement No : 1
Measurement Time : 06/03/2019   16:43:45

Wavelength(nm)	Wavenumber(1/cm)	Transmittance(%)
300.0000      	33333.3    	15.49887
301.0000      	33222.6    	14.50103
302.0000      	33112.6    	14.48434
303.0000      	33003.3    	13.50097
304.0000      	32894.7    	12.77292
305.0000      	32786.9    	12.75947
306.0000      	32679.7    	13.14150
307.0000      	32573.3    	12.20221
308.0000      	32467.5    	11.55826
309.0000      	32362.5    	11.67430
310.0000      	32258.1    	11.88239
311.0000      	32154.3    	11.81211
312.0000      	32051.3    	11.05122
313.0000      	31948.9    	10.83225
314.0000      	31847.1    	10.56343
315.0000      	31746    	10.73853
316.0000      	31645.6    	10.74720
317.0000      	31545.7    	10.51146
318.0000      	31446.5    	10.39049
319.0000      	31348    	9.89863
320.0000      	31250    	9.70460
321.0000      	31152.6    	9.45748
322.0000      	31055.9    	9.65642
323.0000      	30959.8    	9.79628
324.0000      	30864.2    	9.83471
325.0000      	30769.2    	9.26160
326.0000      	30674.8    	9.17402
327.0000      	30581    	8.80651
328.0000      	30487.8    	8.95910
329.0000      	30395.1    	8.93471
330.0000      	30303    	8.84429
331.0000      	30211.5    	9.11826
332.0000      	30120.5    	9.07279
333.0000      	30030    	8.67116
334.0000      	29940.1    	8.22974
335.0000      	29850.7    	8.49992
336.0000      	29761.9    	8.71079
337.0000      	29673.6    	8.68416
338.0000      	29585.8    	8.75657
339.0000      	29498.5    	8.74496
340.0000      	29411.8    	8.70686
341.0000      	29325.5    	8.41209
342.0000      	29239.8    	8.78548
343.0000      	29154.5    	9.07905
344.0000      	29069.8    	9.40639
345.0000      	28985.5    	9.61320
346.0000      	28901.7    	9.18935
347.0000      	28818.4    	9.11125
348.0000      	28735.6    	8.92035
349.0000      	28653.3    	9.26160
350.0000      	28571.4    	9.59214
351.0000      	28490    	10.08775
352.0000      	28409.1    	10.27808
353.0000      	28328.6    	10.49483
354.0000      	28248.6    	10.51792
355.0000      	28169    	10.64457
356.0000      	28089.9    	10.95820
357.0000      	28011.2    	11.32642
358.0000      	27933    	11.69084
359.0000      	27855.2    	12.00493
360.0000      	27777.8    	12.55450
361.0000      	27700.8    	12.89229
362.0000      	27624.3    	12.88804
363.0000      	27548.2    	13.30557
364.0000      	27472.5    	13.61462
365.0000      	27397.3    	14.07260
366.0000      	27322.4    	14.49619
367.0000      	27248    	14.66273
368.0000      	27173.9    	14.95410
369.0000      	27100.3    	15.29101
370.0000      	27027    	15.64768
371.0000      	26954.2    	15.81592
372.0000      	26881.7    	16.28041
373.0000      	26809.7    	16.69196
374.0000      	26738    	16.87139
375.0000      	26666.7    	17.21560
376.0000      	26595.7    	17.75796
377.0000      	26525.2    	18.69082
378.0000      	26455    	19.30099
379.0000      	26385.2    	19.76897
380.0000      	26315.8    	20.19311
381.0000      	26246.7    	20.67603
382.0000      	26178    	21.00976
383.0000      	26109.7    	21.74035
384.0000      	26041.7    	22.54623
385.0000      	25974    	23.01464
386.0000      	25906.7    	23.36502
387.0000      	25839.8    	23.83236
388.0000      	25773.2    	24.56852
389.0000      	25706.9    	25.14787
390.0000      	25641    	25.83192
391.0000      	25575.4    	26.36286
392.0000      	25510.2    	26.57558
393.0000      	25445.3    	26.95571
394.0000      	25380.7    	27.62897
395.0000      	25316.5    	28.46668
396.0000      	25252.5    	29.18835
397.0000      	25188.9    	29.90177
398.0000      	25125.6    	30.68798
399.0000      	25062.7    	31.57971
400.0000      	25000    	32.63890
401.0000      	24937.7    	33.70512
402.0000      	24875.6    	34.17561
403.0000      	24813.9    	35.28498
404.0000      	24752.5    	36.53531
405.0000      	24691.4    	38.02137
406.0000      	24630.5    	39.58974
407.0000      	24570    	41.33935
408.0000      	24509.8    	43.01302
409.0000      	24449.9    	44.52950
410.0000      	24390.2    	46.29234
411.0000      	24330.9    	48.19281
412.0000      	24271.8    	49.14520
413.0000      	24213.1    	50.74018
414.0000      	24154.6    	52.17487
415.0000      	24096.4    	53.67046
416.0000      	24038.5    	54.97038
417.0000      	23980.8    	56.15185
418.0000      	23923.4    	57.05464
419.0000      	23866.3    	57.50330
420.0000      	23809.5    	57.85450
421.0000      	23753    	58.22774
422.0000      	23696.7    	59.04864
423.0000      	23640.7    	59.69717
424.0000      	23584.9    	60.15773
425.0000      	23529.4    	60.66835
426.0000      	23474.2    	61.07296
427.0000      	23419.2    	61.69022
428.0000      	23364.5    	62.01010
429.0000      	23310    	62.43677
430.0000      	23255.8    	62.73004
431.0000      	23201.9    	63.36203
432.0000      	23148.1    	64.15627
433.0000      	23094.7    	64.80294
434.0000      	23041.5    	65.36007
435.0000      	22988.5    	65.60949
436.0000      	22935.8    	65.81731
437.0000      	22883.3    	66.12231
438.0000      	22831.1    	66.30988
439.0000      	22779    	66.58126
440.0000      	22727.3    	66.73298
441.0000      	22675.7    	66.63594
442.0000      	22624.4    	66.44973
443.0000      	22573.4    	66.30947
444.0000      	22522.5    	66.37763
445.0000      	22471.9    	66.34659
446.0000      	22421.5    	66.20789
447.0000      	22371.4    	65.73185
448.0000      	22321.4    	65.00591
449.0000      	22271.7    	64.42983
450.0000      	22222.2    	63.97172
451.0000      	22172.9    	63.82582
452.0000      	22123.9    	63.69330
453.0000      	22075.1    	63.72074
454.0000      	22026.4    	63.51853
455.0000      	21978    	63.40733
456.0000      	21929.8    	63.16472
457.0000      	21881.8    	62.97685
458.0000      	21834.1    	62.91711
459.0000      	21786.5    	62.75160
460.0000      	21739.1    	62.67190
461.0000      	21692    	62.66016
462.0000      	21645    	62.69592
463.0000      	21598.3    	62.56609
464.0000      	21551.7    	62.43578
465.0000      	21505.4    	62.33910
466.0000      	21459.2    	62.31467
467.0000      	21413.3    	62.15393
468.0000      	21367.5    	62.11610
469.0000      	21322    	62.16560
470.0000      	21276.6    	62.29800
471.0000      	21231.4    	62.52166
472.0000      	21186.4    	62.65049
473.0000      	21141.6    	62.70122
474.0000      	21097    	62.71390
475.0000      	21052.6    	62.79095
476.0000      	21008.4    	62.84268
477.0000      	20964.4    	62.85282
478.0000      	20920.5    	62.80873
479.0000      	20876.8    	62.75159
480.0000      	20833.3    	62.75707
481.0000      	20790    	62.70307
482.0000      	20746.9    	62.64213
483.0000      	20703.9    	62.62523
484.0000      	20661.2    	62.66225
485.0000      	20618.6    	62.69612
486.0000      	20576.1    	62.73926
487.0000      	20533.9    	62.74909
488.0000      	20491.8    	62.85626
489.0000      	20449.9    	62.86974
490.0000      	20408.2    	62.75259
491.0000      	20366.6    	62.68142
492.0000      	20325.2    	62.70488
493.0000      	20284    	62.80285
494.0000      	20242.9    	62.92722
495.0000      	20202    	62.98051
496.0000      	20161.3    	63.02163
497.0000      	20120.7    	63.00835
498.0000      	20080.3    	63.03828
499.0000      	20040.1    	63.03353
500.0000      	20000    	62.99261
501.0000      	19960.1    	62.96299
502.0000      	19920.3    	62.91636
503.0000      	19880.7    	62.83468
504.0000      	19841.3    	62.78656
505.0000      	19802    	62.74022
506.0000      	19762.8    	62.75832
507.0000      	19723.9    	62.68439
508.0000      	19685    	62.51245
509.0000      	19646.4    	62.24654
510.0000      	19607.8    	62.04184
511.0000      	19569.5    	61.98117
512.0000      	19531.2    	61.80534
513.0000      	19493.2    	61.73348
514.0000      	19455.3    	61.43176
515.0000      	19417.5    	61.14058
516.0000      	19379.8    	60.85154
517.0000      	19342.4    	60.57395
518.0000      	19305    	60.30085
519.0000      	19267.8    	60.21253
520.0000      	19230.8    	59.94094
521.0000      	19193.9    	59.69559
522.0000      	19157.1    	59.39460
523.0000      	19120.5    	59.15897
524.0000      	19084    	58.89513
525.0000      	19047.6    	58.65904
526.0000      	19011.4    	58.52117
527.0000      	18975.3    	58.20617
528.0000      	18939.4    	57.84825
529.0000      	18903.6    	57.66211
530.0000      	18867.9    	57.56475
531.0000      	18832.4    	57.46088
532.0000      	18797    	57.29033
533.0000      	18761.7    	57.22547
534.0000      	18726.6    	57.11085
535.0000      	18691.6    	57.02761
536.0000      	18656.7    	56.89971
537.0000      	18622    	56.75378
538.0000      	18587.4    	56.58627
539.0000      	18552.9    	56.56358
540.0000      	18518.5    	56.59775
541.0000      	18484.3    	56.65268
542.0000      	18450.2    	56.55415
543.0000      	18416.2    	56.37648
544.0000      	18382.4    	56.26548
545.0000      	18348.6    	56.22663
546.0000      	18315    	56.14773
547.0000      	18281.5    	55.97849
548.0000      	18248.2    	55.88682
549.0000      	18214.9    	55.79584
550.0000      	18181.8    	55.78077
551.0000      	18148.8    	55.72034
552.0000      	18115.9    	55.50081
553.0000      	18083.2    	55.25789
554.0000      	18050.5    	54.99497
555.0000      	18018    	54.74133
556.0000      	17985.6    	54.45059
557.0000      	17953.3    	54.17912
558.0000      	17921.1    	53.99353
559.0000      	17889.1    	53.62535
560.0000      	17857.1    	53.25709
561.0000      	17825.3    	52.97852
562.0000      	17793.6    	52.65987
563.0000      	17762    	52.33559
564.0000      	17730.5    	52.19525
565.0000      	17699.1    	51.99944
566.0000      	17667.8    	51.72343
567.0000      	17636.7    	51.41994
568.0000      	17605.6    	51.17828
569.0000      	17574.7    	51.01497
570.0000      	17543.9    	50.94438
571.0000      	17513.1    	50.85674
572.0000      	17482.5    	50.81413
573.0000      	17452    	50.77979
574.0000      	17421.6    	50.81242
575.0000      	17391.3    	50.90776
576.0000      	17361.1    	51.18862
577.0000      	17331    	51.63223
578.0000      	17301    	51.99506
579.0000      	17271.2    	52.40322
580.0000      	17241.4    	52.88117
581.0000      	17211.7    	53.14324
582.0000      	17182.1    	53.74110
583.0000      	17152.7    	54.25032
584.0000      	17123.3    	54.69202
585.0000      	17094    	55.09286
586.0000      	17064.8    	55.53693
587.0000      	17035.8    	55.71998
588.0000      	17006.8    	56.05231
589.0000      	16977.9    	56.30916
590.0000      	16949.2    	56.56427
591.0000      	16920.5    	56.84595
592.0000      	16891.9    	57.00200
593.0000      	16863.4    	57.09298
594.0000      	16835    	57.22445
595.0000      	16806.7    	57.35959
596.0000      	16778.5    	57.44981
597.0000      	16750.4    	57.52763
598.0000      	16722.4    	57.68014
599.0000      	16694.5    	57.78225
600.0000      	16666.7    	57.91960
601.0000      	16638.9    	57.82551
602.0000      	16611.3    	57.70039
603.0000      	16583.7    	57.68067
604.0000      	16556.3    	57.72074
605.0000      	16528.9    	57.76189
606.0000      	16501.7    	57.78229
607.0000      	16474.5    	57.70494
608.0000      	16447.4    	57.71864
609.0000      	16420.4    	57.70858
610.0000      	16393.4    	57.73185
611.0000      	16366.6    	57.61632
612.0000      	16339.9    	57.48329
613.0000      	16313.2    	57.41859
614.0000      	16286.6    	57.50483
615.0000      	16260.2    	57.53628
616.0000      	16233.8    	57.52448
617.0000      	16207.5    	57.57403
618.0000      	16181.2    	57.54408
619.0000      	16155.1    	57.45721
620.0000      	16129    	57.37550
621.0000      	16103.1    	57.33694
622.0000      	16077.2    	57.39021
623.0000      	16051.4    	57.49856
624.0000      	16025.6    	57.46194
625.0000      	16000    	57.40824
626.0000      	15974.4    	57.38236
627.0000      	15949    	57.44468
628.0000      	15923.6    	57.48822
629.0000      	15898.3    	57.61354
630.0000      	15873    	57.74111
631.0000      	15847.9    	57.78525
632.0000      	15822.8    	57.74431
633.0000      	15797.8    	57.68449
634.0000      	15772.9    	57.75850
635.0000      	15748    	57.86831
636.0000      	15723.3    	57.92372
637.0000      	15698.6    	58.02578
638.0000      	15674    	58.25793
639.0000      	15649.5    	58.41568
640.0000      	15625    	58.58125
641.0000      	15600.6    	58.74208
642.0000      	15576.3    	58.77165
643.0000      	15552.1    	58.90840
644.0000      	15528    	59.19821
645.0000      	15503.9    	59.54181
646.0000      	15479.9    	59.79201
647.0000      	15456    	59.82931
648.0000      	15432.1    	59.95512
649.0000      	15408.3    	60.10741
650.0000      	15384.6    	60.27234
651.0000      	15361    	60.36444
652.0000      	15337.4    	60.59846
653.0000      	15313.9    	60.76261
654.0000      	15290.5    	61.04146
655.0000      	15267.2    	61.19345
656.0000      	15243.9    	61.41545
657.0000      	15220.7    	61.69938
658.0000      	15197.6    	61.85732
659.0000      	15174.5    	61.97720
660.0000      	15151.5    	61.97665
661.0000      	15128.6    	62.14093
662.0000      	15105.7    	62.32629
663.0000      	15083    	62.35419
664.0000      	15060.2    	62.30020
665.0000      	15037.6    	62.27065
666.0000      	15015    	62.51747
667.0000      	14992.5    	62.71574
668.0000      	14970.1    	62.80045
669.0000      	14947.7    	62.61121
670.0000      	14925.4    	62.37527
671.0000      	14903.1    	62.26741
672.0000      	14881    	62.32028
673.0000      	14858.8    	62.42619
674.0000      	14836.8    	62.49948
675.0000      	14814.8    	62.48807
676.0000      	14792.9    	62.34217
677.0000      	14771    	62.19266
678.0000      	14749.3    	62.05562
679.0000      	14727.5    	61.84208
680.0000      	14705.9    	61.79482
681.0000      	14684.3    	61.80192
682.0000      	14662.8    	61.74809
683.0000      	14641.3    	61.70257
684.0000      	14619.9    	61.61089
685.0000      	14598.5    	61.43935
686.0000      	14577.3    	61.33607
687.0000      	14556    	61.21059
688.0000      	14534.9    	61.11403
689.0000      	14513.8    	60.90638
690.0000      	14492.8    	60.84196
691.0000      	14471.8    	60.84562
692.0000      	14450.9    	60.94738
693.0000      	14430    	61.00648
694.0000      	14409.2    	61.10205
695.0000      	14388.5    	61.12457
696.0000      	14367.8    	61.00646
697.0000      	14347.2    	61.05785
698.0000      	14326.6    	61.07873
699.0000      	14306.2    	61.12227
700.0000      	14285.7    	60.91862
701.0000      	14265.3    	60.81899
702.0000      	14245    	60.81352
703.0000      	14224.8    	60.83750
704.0000      	14204.5    	60.71169
705.0000      	14184.4    	60.80997
706.0000      	14164.3    	60.79282
707.0000      	14144.3    	60.78794
708.0000      	14124.3    	60.72755
709.0000      	14104.4    	60.66451
710.0000      	14084.5    	60.51667
711.0000      	14064.7    	60.48655
712.0000      	14044.9    	60.49116
713.0000      	14025.2    	60.47799
714.0000      	14005.6    	60.34720
715.0000      	13986    	60.31202
716.0000      	13966.5    	60.32884
717.0000      	13947    	60.25786
718.0000      	13927.6    	60.26589
719.0000      	13908.2    	60.37686
720.0000      	13888.9    	60.38192
721.0000      	13869.6    	60.47237
722.0000      	13850.4    	60.55666
723.0000      	13831.3    	60.64515
724.0000      	13812.2    	60.64050
725.0000      	13793.1    	60.79118
726.0000      	13774.1    	60.74833
727.0000      	13755.2    	60.78836
728.0000      	13736.3    	60.81835
729.0000      	13717.4    	60.86001
730.0000      	13698.6    	60.77628
731.0000      	13679.9    	60.86672
732.0000      	13661.2    	60.90742
733.0000      	13642.6    	61.12846
734.0000      	13624    	61.13367
735.0000      	13605.4    	61.17962
736.0000      	13587    	61.09703
737.0000      	13568.5    	61.08078
738.0000      	13550.1    	61.24804
739.0000      	13531.8    	61.47330
740.0000      	13513.5    	61.69172
741.0000      	13495.3    	61.71165
742.0000      	13477.1    	61.62028
743.0000      	13459    	61.82088
744.0000      	13440.9    	62.07140
745.0000      	13422.8    	62.37220
746.0000      	13404.8    	62.31609
747.0000      	13386.9    	62.41470
748.0000      	13369    	62.55257
749.0000      	13351.1    	63.00657
750.0000      	13333.3    	63.14770
751.0000      	13315.6    	63.25314
752.0000      	13297.9    	63.30967
753.0000      	13280.2    	63.34069
754.0000      	13262.6    	63.56741
755.0000      	13245    	63.80877
756.0000      	13227.5    	63.89697
757.0000      	13210    	64.06391
758.0000      	13192.6    	64.10121
759.0000      	13175.2    	63.94373
760.0000      	13157.9    	63.96277
761.0000      	13140.6    	64.08607
762.0000      	13123.4    	64.49920
763.0000      	13106.2    	64.41819
764.0000      	13089    	64.20595
765.0000      	13071.9    	64.13011
766.0000      	13054.8    	63.91587
767.0000      	13037.8    	63.86438
768.0000      	13020.8    	63.91629
769.0000      	13003.9    	64.25439
770.0000      	12987    	64.32546
771.0000      	12970.2    	64.49700
772.0000      	12953.4    	64.25947
773.0000      	12936.6    	64.10661
774.0000      	12919.9    	64.11681
775.0000      	12903.2    	64.54898
776.0000      	12886.6    	64.97658
777.0000      	12870    	65.13530
778.0000      	12853.5    	64.78333
779.0000      	12837    	64.70312
780.0000      	12820.5    	64.60567
781.0000      	12804.1    	64.82170
782.0000      	12787.7    	64.67923
783.0000      	12771.4    	64.19644
784.0000      	12755.1    	64.02651
785.0000      	12738.9    	64.05339
786.0000      	12722.6    	64.32985
787.0000      	12706.5    	64.23803
788.0000      	12690.4    	64.43362
789.0000      	12674.3    	64.33578
790.0000      	12658.2    	64.14080
791.0000      	12642.2    	63.83415
792.0000      	12626.3    	64.02745
793.0000      	12610.3    	64.05791
794.0000      	12594.5    	64.06858
795.0000      	12578.6    	64.10682
796.0000      	12562.8    	64.17686
797.0000      	12547.1    	64.33297
798.0000      	12531.3    	64.49721
799.0000      	12515.6    	64.22791
800.0000      	12500    	64.01265