File: data/Reflectance_measurements/Reflectance_2019_material/6/6_3.txt
Unit Serial No : 240-IM0P2424-EU
Integration Time : 10 ms
Time Average: 10
Binning Average: 2
FFT Smoothing: 0%
Project Name : RPS900-R
Sample Name :  SM240-IMOP2424-EU
Measurement No : 1
Measurement Time : 06/03/2019   16:43:55

Wavelength(nm)	Wavenumber(1/cm)	Transmittance(%)
300.0000      	33333.3    	15.40469
301.0000      	33222.6    	14.51638
302.0000      	33112.6    	14.54112
303.0000      	33003.3    	14.67685
304.0000      	32894.7    	14.48688
305.0000      	32786.9    	13.38346
306.0000      	32679.7    	12.79734
307.0000      	32573.3    	12.31956
308.0000      	32467.5    	12.50864
309.0000      	32362.5    	12.25667
310.0000      	32258.1    	11.31224
311.0000      	32154.3    	11.04821
312.0000      	32051.3    	10.47982
313.0000      	31948.9    	11.31215
314.0000      	31847.1    	11.68808
315.0000      	31746    	11.37644
316.0000      	31645.6    	10.45464
317.0000      	31545.7    	10.07521
318.0000      	31446.5    	9.97822
319.0000      	31348    	9.76417
320.0000      	31250    	9.70370
321.0000      	31152.6    	9.26703
322.0000      	31055.9    	8.76574
323.0000      	30959.8    	9.10641
324.0000      	30864.2    	9.53859
325.0000      	30769.2    	9.05092
326.0000      	30674.8    	8.73109
327.0000      	30581    	8.09602
328.0000      	30487.8    	8.27172
329.0000      	30395.1    	8.71227
330.0000      	30303    	8.93412
331.0000      	30211.5    	8.88094
332.0000      	30120.5    	8.52217
333.0000      	30030    	8.17030
334.0000      	29940.1    	8.00714
335.0000      	29850.7    	8.46380
336.0000      	29761.9    	8.74020
337.0000      	29673.6    	8.60240
338.0000      	29585.8    	8.74233
339.0000      	29498.5    	8.83890
340.0000      	29411.8    	9.19960
341.0000      	29325.5    	8.90588
342.0000      	29239.8    	9.09042
343.0000      	29154.5    	9.00679
344.0000      	29069.8    	9.15431
345.0000      	28985.5    	9.55768
346.0000      	28901.7    	9.78092
347.0000      	28818.4    	9.96734
348.0000      	28735.6    	9.74659
349.0000      	28653.3    	9.73046
350.0000      	28571.4    	9.62354
351.0000      	28490    	10.15976
352.0000      	28409.1    	10.39946
353.0000      	28328.6    	10.65305
354.0000      	28248.6    	10.55526
355.0000      	28169    	10.66929
356.0000      	28089.9    	11.13947
357.0000      	28011.2    	11.67158
358.0000      	27933    	11.98834
359.0000      	27855.2    	12.29543
360.0000      	27777.8    	12.58704
361.0000      	27700.8    	13.01147
362.0000      	27624.3    	13.24329
363.0000      	27548.2    	13.70819
364.0000      	27472.5    	13.97952
365.0000      	27397.3    	14.32984
366.0000      	27322.4    	14.72246
367.0000      	27248    	14.89518
368.0000      	27173.9    	15.18749
369.0000      	27100.3    	15.57861
370.0000      	27027    	15.92496
371.0000      	26954.2    	16.02551
372.0000      	26881.7    	16.28236
373.0000      	26809.7    	16.78372
374.0000      	26738    	17.31137
375.0000      	26666.7    	17.69479
376.0000      	26595.7    	18.01494
377.0000      	26525.2    	18.55326
378.0000      	26455    	19.19066
379.0000      	26385.2    	19.89192
380.0000      	26315.8    	20.61467
381.0000      	26246.7    	21.16057
382.0000      	26178    	21.35835
383.0000      	26109.7    	21.85757
384.0000      	26041.7    	22.61408
385.0000      	25974    	23.39188
386.0000      	25906.7    	24.01208
387.0000      	25839.8    	24.45582
388.0000      	25773.2    	25.02803
389.0000      	25706.9    	25.42010
390.0000      	25641    	25.93199
391.0000      	25575.4    	26.59205
392.0000      	25510.2    	26.82672
393.0000      	25445.3    	27.25961
394.0000      	25380.7    	27.93361
395.0000      	25316.5    	28.84084
396.0000      	25252.5    	29.73509
397.0000      	25188.9    	30.40337
398.0000      	25125.6    	31.14377
399.0000      	25062.7    	31.95074
400.0000      	25000    	32.94399
401.0000      	24937.7    	34.11156
402.0000      	24875.6    	34.68287
403.0000      	24813.9    	36.00822
404.0000      	24752.5    	37.31051
405.0000      	24691.4    	38.69728
406.0000      	24630.5    	40.46153
407.0000      	24570    	42.32795
408.0000      	24509.8    	43.93016
409.0000      	24449.9    	45.30045
410.0000      	24390.2    	47.07729
411.0000      	24330.9    	49.19330
412.0000      	24271.8    	50.18270
413.0000      	24213.1    	51.92555
414.0000      	24154.6    	53.27357
415.0000      	24096.4    	54.68585
416.0000      	24038.5    	55.93508
417.0000      	23980.8    	57.12545
418.0000      	23923.4    	57.99833
419.0000      	23866.3    	58.54748
420.0000      	23809.5    	59.12378
421.0000      	23753    	59.52214
422.0000      	23696.7    	60.27556
423.0000      	23640.7    	61.02269
424.0000      	23584.9    	61.53065
425.0000      	23529.4    	61.85786
426.0000      	23474.2    	61.97693
427.0000      	23419.2    	62.58497
428.0000      	23364.5    	63.11739
429.0000      	23310    	63.79623
430.0000      	23255.8    	64.07520
431.0000      	23201.9    	64.78976
432.0000      	23148.1    	65.41725
433.0000      	23094.7    	65.96822
434.0000      	23041.5    	66.51888
435.0000      	22988.5    	67.00616
436.0000      	22935.8    	67.22321
437.0000      	22883.3    	67.40588
438.0000      	22831.1    	67.52657
439.0000      	22779    	67.82883
440.0000      	22727.3    	67.93790
441.0000      	22675.7    	67.97294
442.0000      	22624.4    	67.86180
443.0000      	22573.4    	67.77876
444.0000      	22522.5    	67.60591
445.0000      	22471.9    	67.34411
446.0000      	22421.5    	67.15937
447.0000      	22371.4    	66.68176
448.0000      	22321.4    	66.13882
449.0000      	22271.7    	65.58347
450.0000      	22222.2    	65.13976
451.0000      	22172.9    	64.96336
452.0000      	22123.9    	64.87127
453.0000      	22075.1    	64.82068
454.0000      	22026.4    	64.60185
455.0000      	21978    	64.42714
456.0000      	21929.8    	64.06704
457.0000      	21881.8    	63.99445
458.0000      	21834.1    	64.08003
459.0000      	21786.5    	64.01160
460.0000      	21739.1    	63.91173
461.0000      	21692    	63.90431
462.0000      	21645    	63.86971
463.0000      	21598.3    	63.70440
464.0000      	21551.7    	63.54843
465.0000      	21505.4    	63.46019
466.0000      	21459.2    	63.38233
467.0000      	21413.3    	63.23814
468.0000      	21367.5    	63.26966
469.0000      	21322    	63.26149
470.0000      	21276.6    	63.35579
471.0000      	21231.4    	63.43063
472.0000      	21186.4    	63.60341
473.0000      	21141.6    	63.80766
474.0000      	21097    	63.86230
475.0000      	21052.6    	63.98329
476.0000      	21008.4    	64.07444
477.0000      	20964.4    	64.12895
478.0000      	20920.5    	64.07882
479.0000      	20876.8    	64.10081
480.0000      	20833.3    	64.07578
481.0000      	20790    	63.92485
482.0000      	20746.9    	63.80504
483.0000      	20703.9    	63.85186
484.0000      	20661.2    	63.89124
485.0000      	20618.6    	63.88513
486.0000      	20576.1    	63.84142
487.0000      	20533.9    	63.86737
488.0000      	20491.8    	63.98801
489.0000      	20449.9    	64.03891
490.0000      	20408.2    	63.98939
491.0000      	20366.6    	63.93764
492.0000      	20325.2    	63.92728
493.0000      	20284    	63.95356
494.0000      	20242.9    	64.06676
495.0000      	20202    	64.09589
496.0000      	20161.3    	64.15146
497.0000      	20120.7    	64.20777
498.0000      	20080.3    	64.19582
499.0000      	20040.1    	64.17683
500.0000      	20000    	64.12350
501.0000      	19960.1    	64.09148
502.0000      	19920.3    	64.00482
503.0000      	19880.7    	64.02626
504.0000      	19841.3    	64.02447
505.0000      	19802    	63.93320
506.0000      	19762.8    	63.83819
507.0000      	19723.9    	63.64989
508.0000      	19685    	63.47005
509.0000      	19646.4    	63.30213
510.0000      	19607.8    	63.21371
511.0000      	19569.5    	63.09059
512.0000      	19531.2    	62.86946
513.0000      	19493.2    	62.73587
514.0000      	19455.3    	62.49710
515.0000      	19417.5    	62.28304
516.0000      	19379.8    	62.06032
517.0000      	19342.4    	61.77841
518.0000      	19305    	61.40844
519.0000      	19267.8    	61.27694
520.0000      	19230.8    	60.99135
521.0000      	19193.9    	60.74632
522.0000      	19157.1    	60.39925
523.0000      	19120.5    	60.11627
524.0000      	19084    	59.86043
525.0000      	19047.6    	59.62739
526.0000      	19011.4    	59.51822
527.0000      	18975.3    	59.26356
528.0000      	18939.4    	59.00417
529.0000      	18903.6    	58.74625
530.0000      	18867.9    	58.59148
531.0000      	18832.4    	58.48094
532.0000      	18797    	58.32617
533.0000      	18761.7    	58.29566
534.0000      	18726.6    	58.14653
535.0000      	18691.6    	57.98774
536.0000      	18656.7    	57.85668
537.0000      	18622    	57.77274
538.0000      	18587.4    	57.66414
539.0000      	18552.9    	57.64178
540.0000      	18518.5    	57.63394
541.0000      	18484.3    	57.62354
542.0000      	18450.2    	57.49990
543.0000      	18416.2    	57.43646
544.0000      	18382.4    	57.40299
545.0000      	18348.6    	57.37073
546.0000      	18315    	57.24390
547.0000      	18281.5    	57.16023
548.0000      	18248.2    	57.06437
549.0000      	18214.9    	56.94315
550.0000      	18181.8    	56.78796
551.0000      	18148.8    	56.69109
552.0000      	18115.9    	56.47160
553.0000      	18083.2    	56.27522
554.0000      	18050.5    	56.08115
555.0000      	18018    	55.89183
556.0000      	17985.6    	55.56892
557.0000      	17953.3    	55.20886
558.0000      	17921.1    	54.99975
559.0000      	17889.1    	54.65076
560.0000      	17857.1    	54.30745
561.0000      	17825.3    	53.97406
562.0000      	17793.6    	53.64705
563.0000      	17762    	53.27354
564.0000      	17730.5    	53.08549
565.0000      	17699.1    	52.78804
566.0000      	17667.8    	52.60225
567.0000      	17636.7    	52.42028
568.0000      	17605.6    	52.14372
569.0000      	17574.7    	51.92005
570.0000      	17543.9    	51.85889
571.0000      	17513.1    	51.74816
572.0000      	17482.5    	51.69264
573.0000      	17452    	51.70716
574.0000      	17421.6    	51.84821
575.0000      	17391.3    	51.96910
576.0000      	17361.1    	52.27830
577.0000      	17331    	52.59617
578.0000      	17301    	52.92633
579.0000      	17271.2    	53.32993
580.0000      	17241.4    	53.82505
581.0000      	17211.7    	54.10539
582.0000      	17182.1    	54.67902
583.0000      	17152.7    	55.17408
584.0000      	17123.3    	55.65100
585.0000      	17094    	56.02595
586.0000      	17064.8    	56.46581
587.0000      	17035.8    	56.67290
588.0000      	17006.8    	57.12146
589.0000      	16977.9    	57.39246
590.0000      	16949.2    	57.66900
591.0000      	16920.5    	57.91034
592.0000      	16891.9    	58.02822
593.0000      	16863.4    	58.04636
594.0000      	16835    	58.16092
595.0000      	16806.7    	58.39075
596.0000      	16778.5    	58.59887
597.0000      	16750.4    	58.63654
598.0000      	16722.4    	58.74859
599.0000      	16694.5    	58.84018
600.0000      	16666.7    	59.02305
601.0000      	16638.9    	58.98575
602.0000      	16611.3    	58.90373
603.0000      	16583.7    	58.86135
604.0000      	16556.3    	58.89362
605.0000      	16528.9    	58.89705
606.0000      	16501.7    	58.85682
607.0000      	16474.5    	58.83990
608.0000      	16447.4    	58.87896
609.0000      	16420.4    	58.84192
610.0000      	16393.4    	58.83498
611.0000      	16366.6    	58.73262
612.0000      	16339.9    	58.65326
613.0000      	16313.2    	58.61311
614.0000      	16286.6    	58.74731
615.0000      	16260.2    	58.75859
616.0000      	16233.8    	58.65925
617.0000      	16207.5    	58.63128
618.0000      	16181.2    	58.65327
619.0000      	16155.1    	58.61342
620.0000      	16129    	58.47582
621.0000      	16103.1    	58.41485
622.0000      	16077.2    	58.40401
623.0000      	16051.4    	58.52152
624.0000      	16025.6    	58.53686
625.0000      	16000    	58.53179
626.0000      	15974.4    	58.50570
627.0000      	15949    	58.47844
628.0000      	15923.6    	58.54385
629.0000      	15898.3    	58.59125
630.0000      	15873    	58.79112
631.0000      	15847.9    	58.93406
632.0000      	15822.8    	58.94965
633.0000      	15797.8    	58.87579
634.0000      	15772.9    	58.87122
635.0000      	15748    	58.92326
636.0000      	15723.3    	59.10152
637.0000      	15698.6    	59.20126
638.0000      	15674    	59.48428
639.0000      	15649.5    	59.65260
640.0000      	15625    	59.88183
641.0000      	15600.6    	60.06403
642.0000      	15576.3    	60.09289
643.0000      	15552.1    	60.13346
644.0000      	15528    	60.31071
645.0000      	15503.9    	60.66355
646.0000      	15479.9    	60.97322
647.0000      	15456    	61.06741
648.0000      	15432.1    	61.13588
649.0000      	15408.3    	61.25897
650.0000      	15384.6    	61.36770
651.0000      	15361    	61.52707
652.0000      	15337.4    	61.64523
653.0000      	15313.9    	61.78625
654.0000      	15290.5    	62.01545
655.0000      	15267.2    	62.16885
656.0000      	15243.9    	62.34025
657.0000      	15220.7    	62.60471
658.0000      	15197.6    	62.78169
659.0000      	15174.5    	63.11120
660.0000      	15151.5    	63.17268
661.0000      	15128.6    	63.26721
662.0000      	15105.7    	63.39861
663.0000      	15083    	63.51956
664.0000      	15060.2    	63.74495
665.0000      	15037.6    	63.74921
666.0000      	15015    	63.75900
667.0000      	14992.5    	63.73564
668.0000      	14970.1    	63.78492
669.0000      	14947.7    	63.65767
670.0000      	14925.4    	63.61771
671.0000      	14903.1    	63.71314
672.0000      	14881    	63.75571
673.0000      	14858.8    	63.72021
674.0000      	14836.8    	63.51500
675.0000      	14814.8    	63.41476
676.0000      	14792.9    	63.39459
677.0000      	14771    	63.41206
678.0000      	14749.3    	63.26183
679.0000      	14727.5    	63.05872
680.0000      	14705.9    	62.94379
681.0000      	14684.3    	63.04192
682.0000      	14662.8    	62.98434
683.0000      	14641.3    	62.96005
684.0000      	14619.9    	62.71597
685.0000      	14598.5    	62.51577
686.0000      	14577.3    	62.50259
687.0000      	14556    	62.35078
688.0000      	14534.9    	62.20513
689.0000      	14513.8    	61.88808
690.0000      	14492.8    	61.92416
691.0000      	14471.8    	61.91780
692.0000      	14450.9    	62.05330
693.0000      	14430    	62.11053
694.0000      	14409.2    	62.27333
695.0000      	14388.5    	62.26837
696.0000      	14367.8    	62.25085
697.0000      	14347.2    	62.19417
698.0000      	14326.6    	62.19616
699.0000      	14306.2    	62.22350
700.0000      	14285.7    	62.30585
701.0000      	14265.3    	62.32233
702.0000      	14245    	62.14672
703.0000      	14224.8    	62.05122
704.0000      	14204.5    	61.79929
705.0000      	14184.4    	61.93188
706.0000      	14164.3    	62.09048
707.0000      	14144.3    	62.12890
708.0000      	14124.3    	62.04887
709.0000      	14104.4    	61.79739
710.0000      	14084.5    	61.56196
711.0000      	14064.7    	61.39849
712.0000      	14044.9    	61.47681
713.0000      	14025.2    	61.44289
714.0000      	14005.6    	61.36917
715.0000      	13986    	61.33671
716.0000      	13966.5    	61.39762
717.0000      	13947    	61.52758
718.0000      	13927.6    	61.63776
719.0000      	13908.2    	61.84906
720.0000      	13888.9    	61.65468
721.0000      	13869.6    	61.49726
722.0000      	13850.4    	61.56289
723.0000      	13831.3    	61.79234
724.0000      	13812.2    	62.05001
725.0000      	13793.1    	62.26386
726.0000      	13774.1    	62.21244
727.0000      	13755.2    	62.27394
728.0000      	13736.3    	62.25969
729.0000      	13717.4    	62.23684
730.0000      	13698.6    	61.99765
731.0000      	13679.9    	62.00661
732.0000      	13661.2    	62.03823
733.0000      	13642.6    	62.10979
734.0000      	13624    	62.15788
735.0000      	13605.4    	62.31499
736.0000      	13587    	62.47795
737.0000      	13568.5    	62.48426
738.0000      	13550.1    	62.62004
739.0000      	13531.8    	62.74276
740.0000      	13513.5    	62.89446
741.0000      	13495.3    	63.01020
742.0000      	13477.1    	63.01634
743.0000      	13459    	63.15346
744.0000      	13440.9    	63.26488
745.0000      	13422.8    	63.43007
746.0000      	13404.8    	63.45367
747.0000      	13386.9    	63.60659
748.0000      	13369    	63.76639
749.0000      	13351.1    	64.03893
750.0000      	13333.3    	64.14886
751.0000      	13315.6    	64.32416
752.0000      	13297.9    	64.55453
753.0000      	13280.2    	64.67314
754.0000      	13262.6    	64.81523
755.0000      	13245    	64.92099
756.0000      	13227.5    	64.94600
757.0000      	13210    	65.13086
758.0000      	13192.6    	65.18268
759.0000      	13175.2    	65.22453
760.0000      	13157.9    	65.19275
761.0000      	13140.6    	65.29650
762.0000      	13123.4    	65.52393
763.0000      	13106.2    	65.42120
764.0000      	13089    	65.13806
765.0000      	13071.9    	65.13941
766.0000      	13054.8    	65.21066
767.0000      	13037.8    	65.33642
768.0000      	13020.8    	65.26071
769.0000      	13003.9    	65.38612
770.0000      	12987    	65.58474
771.0000      	12970.2    	65.97970
772.0000      	12953.4    	65.84447
773.0000      	12936.6    	65.52180
774.0000      	12919.9    	65.35480
775.0000      	12903.2    	65.66290
776.0000      	12886.6    	65.93527
777.0000      	12870    	66.07022
778.0000      	12853.5    	65.51081
779.0000      	12837    	65.47701
780.0000      	12820.5    	65.50472
781.0000      	12804.1    	65.81306
782.0000      	12787.7    	65.92837
783.0000      	12771.4    	65.60584
784.0000      	12755.1    	65.40957
785.0000      	12738.9    	65.12836
786.0000      	12722.6    	65.24062
787.0000      	12706.5    	65.40508
788.0000      	12690.4    	65.74313
789.0000      	12674.3    	65.87239
790.0000      	12658.2    	65.77901
791.0000      	12642.2    	65.14559
792.0000      	12626.3    	65.15377
793.0000      	12610.3    	65.32529
794.0000      	12594.5    	65.92538
795.0000      	12578.6    	66.05297
796.0000      	12562.8    	65.58349
797.0000      	12547.1    	65.32262
798.0000      	12531.3    	65.00192
799.0000      	12515.6    	64.84665
800.0000      	12500    	65.11618