File: data/Reflectance_measurements/Reflectance_2019_material/13_white/13_w_3.txt
Unit Serial No : 240-IM0P2424-EU
Integration Time : 10 ms
Time Average: 10
Binning Average: 2
FFT Smoothing: 0%
Project Name : RPS900-R
Sample Name :  SM240-IMOP2424-EU
Measurement No : 1
Measurement Time : 06/03/2019   14:54:27

Wavelength(nm)	Wavenumber(1/cm)	Transmittance(%)
300.0000      	33333.3    	15.26205
301.0000      	33222.6    	14.95971
302.0000      	33112.6    	15.52896
303.0000      	33003.3    	15.98870
304.0000      	32894.7    	15.47432
305.0000      	32786.9    	14.74611
306.0000      	32679.7    	13.69075
307.0000      	32573.3    	13.26031
308.0000      	32467.5    	13.73298
309.0000      	32362.5    	13.17120
310.0000      	32258.1    	12.87130
311.0000      	32154.3    	11.75318
312.0000      	32051.3    	11.58232
313.0000      	31948.9    	11.81802
314.0000      	31847.1    	12.47473
315.0000      	31746    	12.16487
316.0000      	31645.6    	12.06110
317.0000      	31545.7    	11.31660
318.0000      	31446.5    	11.03219
319.0000      	31348    	10.84972
320.0000      	31250    	10.78214
321.0000      	31152.6    	10.23099
322.0000      	31055.9    	9.94328
323.0000      	30959.8    	9.57239
324.0000      	30864.2    	9.59380
325.0000      	30769.2    	9.83443
326.0000      	30674.8    	9.53324
327.0000      	30581    	9.34143
328.0000      	30487.8    	9.10524
329.0000      	30395.1    	9.51282
330.0000      	30303    	9.34781
331.0000      	30211.5    	9.34781
332.0000      	30120.5    	9.22902
333.0000      	30030    	9.11756
334.0000      	29940.1    	9.23282
335.0000      	29850.7    	9.22663
336.0000      	29761.9    	9.03154
337.0000      	29673.6    	8.91230
338.0000      	29585.8    	9.15235
339.0000      	29498.5    	9.25721
340.0000      	29411.8    	9.56277
341.0000      	29325.5    	9.70781
342.0000      	29239.8    	9.70785
343.0000      	29154.5    	9.62236
344.0000      	29069.8    	9.61874
345.0000      	28985.5    	9.95310
346.0000      	28901.7    	10.18105
347.0000      	28818.4    	10.27630
348.0000      	28735.6    	10.34526
349.0000      	28653.3    	10.36945
350.0000      	28571.4    	10.52574
351.0000      	28490    	10.79061
352.0000      	28409.1    	10.92570
353.0000      	28328.6    	11.08340
354.0000      	28248.6    	11.17641
355.0000      	28169    	11.30895
356.0000      	28089.9    	11.86799
357.0000      	28011.2    	12.33596
358.0000      	27933    	12.53464
359.0000      	27855.2    	12.69660
360.0000      	27777.8    	12.81839
361.0000      	27700.8    	13.23858
362.0000      	27624.3    	13.75675
363.0000      	27548.2    	14.07183
364.0000      	27472.5    	14.01418
365.0000      	27397.3    	14.00364
366.0000      	27322.4    	14.32036
367.0000      	27248    	14.80091
368.0000      	27173.9    	15.31023
369.0000      	27100.3    	15.70785
370.0000      	27027    	15.92355
371.0000      	26954.2    	16.03990
372.0000      	26881.7    	16.48815
373.0000      	26809.7    	16.84115
374.0000      	26738    	17.23851
375.0000      	26666.7    	17.67263
376.0000      	26595.7    	18.14229
377.0000      	26525.2    	18.51769
378.0000      	26455    	18.94419
379.0000      	26385.2    	19.68025
380.0000      	26315.8    	20.46815
381.0000      	26246.7    	20.95321
382.0000      	26178    	21.12175
383.0000      	26109.7    	21.62127
384.0000      	26041.7    	22.13424
385.0000      	25974    	22.82631
386.0000      	25906.7    	23.37800
387.0000      	25839.8    	23.92035
388.0000      	25773.2    	24.36331
389.0000      	25706.9    	24.94816
390.0000      	25641    	25.47732
391.0000      	25575.4    	26.04984
392.0000      	25510.2    	26.37849
393.0000      	25445.3    	27.04270
394.0000      	25380.7    	27.67282
395.0000      	25316.5    	28.30122
396.0000      	25252.5    	28.99440
397.0000      	25188.9    	29.71036
398.0000      	25125.6    	30.51720
399.0000      	25062.7    	31.25652
400.0000      	25000    	32.28652
401.0000      	24937.7    	33.51739
402.0000      	24875.6    	34.16383
403.0000      	24813.9    	35.26383
404.0000      	24752.5    	36.44150
405.0000      	24691.4    	37.89905
406.0000      	24630.5    	39.29314
407.0000      	24570    	40.72401
408.0000      	24509.8    	41.99860
409.0000      	24449.9    	43.30350
410.0000      	24390.2    	44.73493
411.0000      	24330.9    	46.41425
412.0000      	24271.8    	47.21776
413.0000      	24213.1    	48.90931
414.0000      	24154.6    	50.40336
415.0000      	24096.4    	51.68587
416.0000      	24038.5    	52.60693
417.0000      	23980.8    	53.50702
418.0000      	23923.4    	54.18990
419.0000      	23866.3    	54.75423
420.0000      	23809.5    	55.17191
421.0000      	23753    	55.45061
422.0000      	23696.7    	55.93981
423.0000      	23640.7    	56.61581
424.0000      	23584.9    	57.24497
425.0000      	23529.4    	57.61334
426.0000      	23474.2    	58.04975
427.0000      	23419.2    	58.61164
428.0000      	23364.5    	58.97828
429.0000      	23310    	59.41315
430.0000      	23255.8    	59.71207
431.0000      	23201.9    	60.43237
432.0000      	23148.1    	61.06935
433.0000      	23094.7    	61.51104
434.0000      	23041.5    	61.80269
435.0000      	22988.5    	62.13945
436.0000      	22935.8    	62.51426
437.0000      	22883.3    	62.95878
438.0000      	22831.1    	63.02755
439.0000      	22779    	63.21273
440.0000      	22727.3    	63.37965
441.0000      	22675.7    	63.51106
442.0000      	22624.4    	63.53797
443.0000      	22573.4    	63.49023
444.0000      	22522.5    	63.38026
445.0000      	22471.9    	63.18084
446.0000      	22421.5    	63.02934
447.0000      	22371.4    	62.65617
448.0000      	22321.4    	62.08032
449.0000      	22271.7    	61.71340
450.0000      	22222.2    	61.40996
451.0000      	22172.9    	61.23077
452.0000      	22123.9    	61.27001
453.0000      	22075.1    	61.26545
454.0000      	22026.4    	61.26048
455.0000      	21978    	61.23134
456.0000      	21929.8    	61.32864
457.0000      	21881.8    	61.30850
458.0000      	21834.1    	61.24216
459.0000      	21786.5    	61.29572
460.0000      	21739.1    	61.43606
461.0000      	21692    	61.52015
462.0000      	21645    	61.51261
463.0000      	21598.3    	61.48772
464.0000      	21551.7    	61.34223
465.0000      	21505.4    	61.43503
466.0000      	21459.2    	61.50424
467.0000      	21413.3    	61.50605
468.0000      	21367.5    	61.50574
469.0000      	21322    	61.54156
470.0000      	21276.6    	61.60990
471.0000      	21231.4    	61.63887
472.0000      	21186.4    	61.79809
473.0000      	21141.6    	62.08076
474.0000      	21097    	62.40684
475.0000      	21052.6    	62.59648
476.0000      	21008.4    	62.63771
477.0000      	20964.4    	62.64434
478.0000      	20920.5    	62.64997
479.0000      	20876.8    	62.72950
480.0000      	20833.3    	62.89424
481.0000      	20790    	63.06183
482.0000      	20746.9    	63.18183
483.0000      	20703.9    	63.37056
484.0000      	20661.2    	63.50403
485.0000      	20618.6    	63.55278
486.0000      	20576.1    	63.61599
487.0000      	20533.9    	63.72366
488.0000      	20491.8    	63.86694
489.0000      	20449.9    	63.99940
490.0000      	20408.2    	64.09789
491.0000      	20366.6    	64.28453
492.0000      	20325.2    	64.44306
493.0000      	20284    	64.63927
494.0000      	20242.9    	64.78553
495.0000      	20202    	64.80627
496.0000      	20161.3    	64.89497
497.0000      	20120.7    	65.01227
498.0000      	20080.3    	65.19364
499.0000      	20040.1    	65.27400
500.0000      	20000    	65.33383
501.0000      	19960.1    	65.24509
502.0000      	19920.3    	65.20526
503.0000      	19880.7    	65.34943
504.0000      	19841.3    	65.44984
505.0000      	19802    	65.31836
506.0000      	19762.8    	65.22496
507.0000      	19723.9    	65.04929
508.0000      	19685    	64.92364
509.0000      	19646.4    	64.68629
510.0000      	19607.8    	64.45715
511.0000      	19569.5    	64.22570
512.0000      	19531.2    	63.92301
513.0000      	19493.2    	63.73529
514.0000      	19455.3    	63.40166
515.0000      	19417.5    	62.97646
516.0000      	19379.8    	62.51617
517.0000      	19342.4    	62.06812
518.0000      	19305    	61.70884
519.0000      	19267.8    	61.51868
520.0000      	19230.8    	61.15990
521.0000      	19193.9    	60.70026
522.0000      	19157.1    	60.16958
523.0000      	19120.5    	59.60589
524.0000      	19084    	59.15670
525.0000      	19047.6    	58.74313
526.0000      	19011.4    	58.57468
527.0000      	18975.3    	58.24725
528.0000      	18939.4    	57.79615
529.0000      	18903.6    	57.39859
530.0000      	18867.9    	57.08417
531.0000      	18832.4    	56.94482
532.0000      	18797    	56.75656
533.0000      	18761.7    	56.64761
534.0000      	18726.6    	56.45058
535.0000      	18691.6    	56.27594
536.0000      	18656.7    	56.08192
537.0000      	18622    	55.91317
538.0000      	18587.4    	55.84356
539.0000      	18552.9    	55.80287
540.0000      	18518.5    	55.75518
541.0000      	18484.3    	55.68329
542.0000      	18450.2    	55.62755
543.0000      	18416.2    	55.56661
544.0000      	18382.4    	55.51738
545.0000      	18348.6    	55.49290
546.0000      	18315    	55.32341
547.0000      	18281.5    	55.22409
548.0000      	18248.2    	55.13024
549.0000      	18214.9    	55.09828
550.0000      	18181.8    	54.94128
551.0000      	18148.8    	54.80824
552.0000      	18115.9    	54.43400
553.0000      	18083.2    	54.12078
554.0000      	18050.5    	53.81142
555.0000      	18018    	53.48641
556.0000      	17985.6    	53.17290
557.0000      	17953.3    	52.80317
558.0000      	17921.1    	52.55070
559.0000      	17889.1    	52.00444
560.0000      	17857.1    	51.50927
561.0000      	17825.3    	51.19175
562.0000      	17793.6    	50.73105
563.0000      	17762    	50.22869
564.0000      	17730.5    	49.93268
565.0000      	17699.1    	49.49329
566.0000      	17667.8    	49.17078
567.0000      	17636.7    	48.98850
568.0000      	17605.6    	48.78425
569.0000      	17574.7    	48.56751
570.0000      	17543.9    	48.46460
571.0000      	17513.1    	48.37936
572.0000      	17482.5    	48.45220
573.0000      	17452    	48.64219
574.0000      	17421.6    	48.84710
575.0000      	17391.3    	48.99015
576.0000      	17361.1    	49.33574
577.0000      	17331    	49.83581
578.0000      	17301    	50.32934
579.0000      	17271.2    	50.96339
580.0000      	17241.4    	51.65126
581.0000      	17211.7    	52.07495
582.0000      	17182.1    	52.89506
583.0000      	17152.7    	53.56037
584.0000      	17123.3    	54.14827
585.0000      	17094    	54.87534
586.0000      	17064.8    	55.56447
587.0000      	17035.8    	55.89699
588.0000      	17006.8    	56.45036
589.0000      	16977.9    	56.99078
590.0000      	16949.2    	57.46515
591.0000      	16920.5    	57.88205
592.0000      	16891.9    	58.24572
593.0000      	16863.4    	58.39981
594.0000      	16835    	58.63866
595.0000      	16806.7    	58.87355
596.0000      	16778.5    	59.14018
597.0000      	16750.4    	59.40010
598.0000      	16722.4    	59.56358
599.0000      	16694.5    	59.56271
600.0000      	16666.7    	59.56118
601.0000      	16638.9    	59.69024
602.0000      	16611.3    	59.87359
603.0000      	16583.7    	59.91864
604.0000      	16556.3    	59.82558
605.0000      	16528.9    	59.68565
606.0000      	16501.7    	59.73289
607.0000      	16474.5    	59.69180
608.0000      	16447.4    	59.65852
609.0000      	16420.4    	59.73103
610.0000      	16393.4    	59.77974
611.0000      	16366.6    	59.97658
612.0000      	16339.9    	59.99603
613.0000      	16313.2    	59.89954
614.0000      	16286.6    	59.81482
615.0000      	16260.2    	59.78618
616.0000      	16233.8    	59.74723
617.0000      	16207.5    	59.73763
618.0000      	16181.2    	59.69706
619.0000      	16155.1    	59.71056
620.0000      	16129    	59.70788
621.0000      	16103.1    	59.73281
622.0000      	16077.2    	59.64588
623.0000      	16051.4    	59.62932
624.0000      	16025.6    	59.65507
625.0000      	16000    	59.77215
626.0000      	15974.4    	59.81294
627.0000      	15949    	59.93206
628.0000      	15923.6    	60.02570
629.0000      	15898.3    	60.08921
630.0000      	15873    	60.20186
631.0000      	15847.9    	60.35384
632.0000      	15822.8    	60.46071
633.0000      	15797.8    	60.57061
634.0000      	15772.9    	60.68920
635.0000      	15748    	60.82837
636.0000      	15723.3    	61.05579
637.0000      	15698.6    	61.23637
638.0000      	15674    	61.47730
639.0000      	15649.5    	61.70658
640.0000      	15625    	61.87436
641.0000      	15600.6    	62.16212
642.0000      	15576.3    	62.33242
643.0000      	15552.1    	62.85761
644.0000      	15528    	63.18914
645.0000      	15503.9    	63.34077
646.0000      	15479.9    	63.59806
647.0000      	15456    	63.77467
648.0000      	15432.1    	64.25395
649.0000      	15408.3    	64.67183
650.0000      	15384.6    	65.01147
651.0000      	15361    	65.33292
652.0000      	15337.4    	65.78254
653.0000      	15313.9    	65.92799
654.0000      	15290.5    	66.27584
655.0000      	15267.2    	66.73087
656.0000      	15243.9    	67.20452
657.0000      	15220.7    	67.51726
658.0000      	15197.6    	67.74246
659.0000      	15174.5    	68.08244
660.0000      	15151.5    	68.41304
661.0000      	15128.6    	68.65021
662.0000      	15105.7    	68.98415
663.0000      	15083    	69.10793
664.0000      	15060.2    	69.31401
665.0000      	15037.6    	69.47210
666.0000      	15015    	69.52055
667.0000      	14992.5    	69.51276
668.0000      	14970.1    	69.53802
669.0000      	14947.7    	69.78709
670.0000      	14925.4    	69.93504
671.0000      	14903.1    	69.96216
672.0000      	14881    	69.77919
673.0000      	14858.8    	69.73562
674.0000      	14836.8    	69.64924
675.0000      	14814.8    	69.68750
676.0000      	14792.9    	69.64433
677.0000      	14771    	69.78796
678.0000      	14749.3    	69.76353
679.0000      	14727.5    	69.73969
680.0000      	14705.9    	69.45329
681.0000      	14684.3    	69.37528
682.0000      	14662.8    	69.39057
683.0000      	14641.3    	69.29150
684.0000      	14619.9    	69.18121
685.0000      	14598.5    	68.78788
686.0000      	14577.3    	68.41772
687.0000      	14556    	68.00681
688.0000      	14534.9    	67.98129
689.0000      	14513.8    	68.01673
690.0000      	14492.8    	68.21291
691.0000      	14471.8    	68.16797
692.0000      	14450.9    	67.99953
693.0000      	14430    	67.99716
694.0000      	14409.2    	68.21390
695.0000      	14388.5    	68.38208
696.0000      	14367.8    	68.24998
697.0000      	14347.2    	67.94527
698.0000      	14326.6    	67.94537
699.0000      	14306.2    	67.97314
700.0000      	14285.7    	68.20953
701.0000      	14265.3    	68.20152
702.0000      	14245    	68.12630
703.0000      	14224.8    	68.00563
704.0000      	14204.5    	67.94099
705.0000      	14184.4    	67.97287
706.0000      	14164.3    	67.80156
707.0000      	14144.3    	67.69772
708.0000      	14124.3    	67.63931
709.0000      	14104.4    	67.54504
710.0000      	14084.5    	67.52889
711.0000      	14064.7    	67.51119
712.0000      	14044.9    	67.36868
713.0000      	14025.2    	67.31845
714.0000      	14005.6    	67.21203
715.0000      	13986    	67.32342
716.0000      	13966.5    	67.40079
717.0000      	13947    	67.55716
718.0000      	13927.6    	67.63086
719.0000      	13908.2    	67.80567
720.0000      	13888.9    	67.85218
721.0000      	13869.6    	67.84048
722.0000      	13850.4    	68.05188
723.0000      	13831.3    	68.25732
724.0000      	13812.2    	68.62101
725.0000      	13793.1    	68.84168
726.0000      	13774.1    	69.17919
727.0000      	13755.2    	69.20917
728.0000      	13736.3    	69.27261
729.0000      	13717.4    	69.22980
730.0000      	13698.6    	69.48972
731.0000      	13679.9    	69.79478
732.0000      	13661.2    	69.95824
733.0000      	13642.6    	70.19768
734.0000      	13624    	70.62514
735.0000      	13605.4    	70.96790
736.0000      	13587    	71.08302
737.0000      	13568.5    	71.08053
738.0000      	13550.1    	71.53767
739.0000      	13531.8    	72.06470
740.0000      	13513.5    	72.45167
741.0000      	13495.3    	72.71120
742.0000      	13477.1    	72.86002
743.0000      	13459    	73.58662
744.0000      	13440.9    	74.17899
745.0000      	13422.8    	74.74644
746.0000      	13404.8    	75.16282
747.0000      	13386.9    	75.34387
748.0000      	13369    	75.56751
749.0000      	13351.1    	75.68688
750.0000      	13333.3    	76.22188
751.0000      	13315.6    	76.51782
752.0000      	13297.9    	76.96432
753.0000      	13280.2    	77.59564
754.0000      	13262.6    	78.31626
755.0000      	13245    	78.77789
756.0000      	13227.5    	78.93102
757.0000      	13210    	79.03981
758.0000      	13192.6    	79.54992
759.0000      	13175.2    	79.99126
760.0000      	13157.9    	80.63479
761.0000      	13140.6    	80.84438
762.0000      	13123.4    	81.25305
763.0000      	13106.2    	81.46116
764.0000      	13089    	81.70747
765.0000      	13071.9    	81.82332
766.0000      	13054.8    	81.86810
767.0000      	13037.8    	81.84848
768.0000      	13020.8    	82.04702
769.0000      	13003.9    	82.48831
770.0000      	12987    	82.66795
771.0000      	12970.2    	82.89593
772.0000      	12953.4    	83.09249
773.0000      	12936.6    	83.36977
774.0000      	12919.9    	83.32651
775.0000      	12903.2    	83.08488
776.0000      	12886.6    	82.82117
777.0000      	12870    	83.11439
778.0000      	12853.5    	83.10694
779.0000      	12837    	83.39796
780.0000      	12820.5    	83.18722
781.0000      	12804.1    	83.05338
782.0000      	12787.7    	83.25110
783.0000      	12771.4    	83.55907
784.0000      	12755.1    	83.54895
785.0000      	12738.9    	83.57480
786.0000      	12722.6    	83.68848
787.0000      	12706.5    	83.45171
788.0000      	12690.4    	83.50069
789.0000      	12674.3    	83.37531
790.0000      	12658.2    	83.73457
791.0000      	12642.2    	83.43777
792.0000      	12626.3    	82.80232
793.0000      	12610.3    	82.58597
794.0000      	12594.5    	82.89880
795.0000      	12578.6    	83.50494
796.0000      	12562.8    	83.49336
797.0000      	12547.1    	83.51283
798.0000      	12531.3    	83.24714
799.0000      	12515.6    	83.12495
800.0000      	12500    	83.52529