File: data/Reflectance_measurements/Reflectance_2019_material/13_white/13_w_2.txt
Unit Serial No : 240-IM0P2424-EU
Integration Time : 10 ms
Time Average: 10
Binning Average: 2
FFT Smoothing: 0%
Project Name : RPS900-R
Sample Name :  SM240-IMOP2424-EU
Measurement No : 1
Measurement Time : 06/03/2019   14:54:15

Wavelength(nm)	Wavenumber(1/cm)	Transmittance(%)
300.0000      	33333.3    	16.86610
301.0000      	33222.6    	16.59970
302.0000      	33112.6    	16.92407
303.0000      	33003.3    	16.88587
304.0000      	32894.7    	14.90215
305.0000      	32786.9    	14.89808
306.0000      	32679.7    	14.64417
307.0000      	32573.3    	14.70325
308.0000      	32467.5    	14.38986
309.0000      	32362.5    	12.88143
310.0000      	32258.1    	12.23478
311.0000      	32154.3    	12.57232
312.0000      	32051.3    	12.42896
313.0000      	31948.9    	11.86041
314.0000      	31847.1    	11.79326
315.0000      	31746    	11.98465
316.0000      	31645.6    	12.09150
317.0000      	31545.7    	11.35846
318.0000      	31446.5    	10.74112
319.0000      	31348    	10.47538
320.0000      	31250    	10.98701
321.0000      	31152.6    	10.98257
322.0000      	31055.9    	10.54973
323.0000      	30959.8    	9.95378
324.0000      	30864.2    	9.31964
325.0000      	30769.2    	9.60824
326.0000      	30674.8    	9.84160
327.0000      	30581    	10.10632
328.0000      	30487.8    	9.32169
329.0000      	30395.1    	9.08494
330.0000      	30303    	9.23843
331.0000      	30211.5    	9.36125
332.0000      	30120.5    	9.23732
333.0000      	30030    	9.01188
334.0000      	29940.1    	9.29120
335.0000      	29850.7    	9.15566
336.0000      	29761.9    	9.10201
337.0000      	29673.6    	9.24507
338.0000      	29585.8    	9.48820
339.0000      	29498.5    	9.38029
340.0000      	29411.8    	9.47590
341.0000      	29325.5    	9.76324
342.0000      	29239.8    	9.91313
343.0000      	29154.5    	9.94708
344.0000      	29069.8    	9.98372
345.0000      	28985.5    	9.86846
346.0000      	28901.7    	9.86085
347.0000      	28818.4    	9.78336
348.0000      	28735.6    	9.91118
349.0000      	28653.3    	10.12674
350.0000      	28571.4    	10.52163
351.0000      	28490    	10.72616
352.0000      	28409.1    	10.75431
353.0000      	28328.6    	11.16908
354.0000      	28248.6    	11.44017
355.0000      	28169    	11.44650
356.0000      	28089.9    	11.90483
357.0000      	28011.2    	12.11597
358.0000      	27933    	12.54130
359.0000      	27855.2    	12.83180
360.0000      	27777.8    	13.22416
361.0000      	27700.8    	13.34321
362.0000      	27624.3    	13.37133
363.0000      	27548.2    	13.55877
364.0000      	27472.5    	13.81964
365.0000      	27397.3    	14.12415
366.0000      	27322.4    	14.41558
367.0000      	27248    	14.78125
368.0000      	27173.9    	15.19448
369.0000      	27100.3    	15.65200
370.0000      	27027    	15.97667
371.0000      	26954.2    	16.13837
372.0000      	26881.7    	16.47970
373.0000      	26809.7    	16.74474
374.0000      	26738    	17.00304
375.0000      	26666.7    	17.43630
376.0000      	26595.7    	18.06911
377.0000      	26525.2    	18.47827
378.0000      	26455    	19.03588
379.0000      	26385.2    	19.58703
380.0000      	26315.8    	20.12366
381.0000      	26246.7    	20.50821
382.0000      	26178    	20.73624
383.0000      	26109.7    	21.37847
384.0000      	26041.7    	21.95156
385.0000      	25974    	22.60118
386.0000      	25906.7    	23.01428
387.0000      	25839.8    	23.60228
388.0000      	25773.2    	24.03216
389.0000      	25706.9    	24.69635
390.0000      	25641    	25.26584
391.0000      	25575.4    	25.74195
392.0000      	25510.2    	26.09253
393.0000      	25445.3    	26.86466
394.0000      	25380.7    	27.47808
395.0000      	25316.5    	27.95436
396.0000      	25252.5    	28.62580
397.0000      	25188.9    	29.36947
398.0000      	25125.6    	30.29405
399.0000      	25062.7    	31.18795
400.0000      	25000    	32.20640
401.0000      	24937.7    	33.26996
402.0000      	24875.6    	33.84621
403.0000      	24813.9    	35.01118
404.0000      	24752.5    	36.22946
405.0000      	24691.4    	37.64080
406.0000      	24630.5    	38.84342
407.0000      	24570    	40.38163
408.0000      	24509.8    	41.97799
409.0000      	24449.9    	43.39153
410.0000      	24390.2    	44.79142
411.0000      	24330.9    	46.32582
412.0000      	24271.8    	47.24039
413.0000      	24213.1    	48.94721
414.0000      	24154.6    	50.44533
415.0000      	24096.4    	51.61238
416.0000      	24038.5    	52.56385
417.0000      	23980.8    	53.38429
418.0000      	23923.4    	54.16981
419.0000      	23866.3    	54.81044
420.0000      	23809.5    	55.27232
421.0000      	23753    	55.58184
422.0000      	23696.7    	56.17886
423.0000      	23640.7    	56.78324
424.0000      	23584.9    	57.27813
425.0000      	23529.4    	57.76501
426.0000      	23474.2    	58.32897
427.0000      	23419.2    	58.85952
428.0000      	23364.5    	59.36882
429.0000      	23310    	59.77755
430.0000      	23255.8    	60.04973
431.0000      	23201.9    	60.55585
432.0000      	23148.1    	61.24225
433.0000      	23094.7    	61.77914
434.0000      	23041.5    	62.28815
435.0000      	22988.5    	62.76895
436.0000      	22935.8    	63.23481
437.0000      	22883.3    	63.59297
438.0000      	22831.1    	63.64058
439.0000      	22779    	63.73820
440.0000      	22727.3    	63.81487
441.0000      	22675.7    	63.74751
442.0000      	22624.4    	63.49976
443.0000      	22573.4    	63.61742
444.0000      	22522.5    	63.55959
445.0000      	22471.9    	63.40834
446.0000      	22421.5    	63.31765
447.0000      	22371.4    	63.09337
448.0000      	22321.4    	62.59184
449.0000      	22271.7    	62.02400
450.0000      	22222.2    	61.52848
451.0000      	22172.9    	61.38319
452.0000      	22123.9    	61.68079
453.0000      	22075.1    	61.85891
454.0000      	22026.4    	61.79851
455.0000      	21978    	61.72880
456.0000      	21929.8    	61.76901
457.0000      	21881.8    	61.68673
458.0000      	21834.1    	61.54221
459.0000      	21786.5    	61.43457
460.0000      	21739.1    	61.53994
461.0000      	21692    	61.45749
462.0000      	21645    	61.35859
463.0000      	21598.3    	61.40136
464.0000      	21551.7    	61.48431
465.0000      	21505.4    	61.65747
466.0000      	21459.2    	61.69439
467.0000      	21413.3    	61.68217
468.0000      	21367.5    	61.63363
469.0000      	21322    	61.70676
470.0000      	21276.6    	61.75954
471.0000      	21231.4    	61.90837
472.0000      	21186.4    	62.15752
473.0000      	21141.6    	62.54992
474.0000      	21097    	62.79151
475.0000      	21052.6    	62.97122
476.0000      	21008.4    	63.08732
477.0000      	20964.4    	63.20124
478.0000      	20920.5    	63.23335
479.0000      	20876.8    	63.25826
480.0000      	20833.3    	63.35238
481.0000      	20790    	63.39902
482.0000      	20746.9    	63.46162
483.0000      	20703.9    	63.51198
484.0000      	20661.2    	63.65911
485.0000      	20618.6    	63.77518
486.0000      	20576.1    	63.86758
487.0000      	20533.9    	64.05031
488.0000      	20491.8    	64.28197
489.0000      	20449.9    	64.43822
490.0000      	20408.2    	64.47914
491.0000      	20366.6    	64.70826
492.0000      	20325.2    	64.83806
493.0000      	20284    	65.01431
494.0000      	20242.9    	65.04261
495.0000      	20202    	65.12429
496.0000      	20161.3    	65.30512
497.0000      	20120.7    	65.48668
498.0000      	20080.3    	65.58257
499.0000      	20040.1    	65.63811
500.0000      	20000    	65.65965
501.0000      	19960.1    	65.60242
502.0000      	19920.3    	65.54843
503.0000      	19880.7    	65.60296
504.0000      	19841.3    	65.70374
505.0000      	19802    	65.54220
506.0000      	19762.8    	65.40936
507.0000      	19723.9    	65.22839
508.0000      	19685    	65.14807
509.0000      	19646.4    	65.03669
510.0000      	19607.8    	64.74706
511.0000      	19569.5    	64.42455
512.0000      	19531.2    	64.05373
513.0000      	19493.2    	63.84750
514.0000      	19455.3    	63.53618
515.0000      	19417.5    	63.21565
516.0000      	19379.8    	62.90233
517.0000      	19342.4    	62.48384
518.0000      	19305    	61.98779
519.0000      	19267.8    	61.75122
520.0000      	19230.8    	61.30869
521.0000      	19193.9    	60.84559
522.0000      	19157.1    	60.41489
523.0000      	19120.5    	59.95493
524.0000      	19084    	59.46690
525.0000      	19047.6    	58.91910
526.0000      	19011.4    	58.71810
527.0000      	18975.3    	58.36595
528.0000      	18939.4    	58.00447
529.0000      	18903.6    	57.71197
530.0000      	18867.9    	57.52566
531.0000      	18832.4    	57.26888
532.0000      	18797    	56.98724
533.0000      	18761.7    	56.89878
534.0000      	18726.6    	56.70478
535.0000      	18691.6    	56.47950
536.0000      	18656.7    	56.29654
537.0000      	18622    	56.21329
538.0000      	18587.4    	56.08216
539.0000      	18552.9    	56.03065
540.0000      	18518.5    	55.92802
541.0000      	18484.3    	55.84290
542.0000      	18450.2    	55.80573
543.0000      	18416.2    	55.83886
544.0000      	18382.4    	55.79773
545.0000      	18348.6    	55.74027
546.0000      	18315    	55.56455
547.0000      	18281.5    	55.47806
548.0000      	18248.2    	55.46999
549.0000      	18214.9    	55.39527
550.0000      	18181.8    	55.23249
551.0000      	18148.8    	55.07890
552.0000      	18115.9    	54.74517
553.0000      	18083.2    	54.36254
554.0000      	18050.5    	54.03983
555.0000      	18018    	53.62892
556.0000      	17985.6    	53.22049
557.0000      	17953.3    	52.86673
558.0000      	17921.1    	52.67376
559.0000      	17889.1    	52.21220
560.0000      	17857.1    	51.75352
561.0000      	17825.3    	51.32459
562.0000      	17793.6    	50.85143
563.0000      	17762    	50.39326
564.0000      	17730.5    	50.21243
565.0000      	17699.1    	49.82037
566.0000      	17667.8    	49.47681
567.0000      	17636.7    	49.15476
568.0000      	17605.6    	48.83182
569.0000      	17574.7    	48.64370
570.0000      	17543.9    	48.60516
571.0000      	17513.1    	48.58125
572.0000      	17482.5    	48.68490
573.0000      	17452    	48.80640
574.0000      	17421.6    	49.03291
575.0000      	17391.3    	49.12726
576.0000      	17361.1    	49.44139
577.0000      	17331    	49.90840
578.0000      	17301    	50.50198
579.0000      	17271.2    	51.24674
580.0000      	17241.4    	51.85339
581.0000      	17211.7    	52.25771
582.0000      	17182.1    	53.01548
583.0000      	17152.7    	53.72373
584.0000      	17123.3    	54.31067
585.0000      	17094    	55.09117
586.0000      	17064.8    	55.83326
587.0000      	17035.8    	56.16228
588.0000      	17006.8    	56.65701
589.0000      	16977.9    	57.12905
590.0000      	16949.2    	57.63680
591.0000      	16920.5    	58.17062
592.0000      	16891.9    	58.55350
593.0000      	16863.4    	58.70972
594.0000      	16835    	58.88549
595.0000      	16806.7    	59.21671
596.0000      	16778.5    	59.41808
597.0000      	16750.4    	59.60835
598.0000      	16722.4    	59.71626
599.0000      	16694.5    	59.75948
600.0000      	16666.7    	59.82729
601.0000      	16638.9    	59.96228
602.0000      	16611.3    	60.07182
603.0000      	16583.7    	59.94413
604.0000      	16556.3    	59.91662
605.0000      	16528.9    	59.92837
606.0000      	16501.7    	60.06023
607.0000      	16474.5    	60.02517
608.0000      	16447.4    	59.98719
609.0000      	16420.4    	60.07335
610.0000      	16393.4    	60.07483
611.0000      	16366.6    	60.14938
612.0000      	16339.9    	60.15558
613.0000      	16313.2    	60.27667
614.0000      	16286.6    	60.30985
615.0000      	16260.2    	60.23059
616.0000      	16233.8    	60.04668
617.0000      	16207.5    	59.97918
618.0000      	16181.2    	60.01654
619.0000      	16155.1    	60.09788
620.0000      	16129    	60.03813
621.0000      	16103.1    	60.03007
622.0000      	16077.2    	59.89742
623.0000      	16051.4    	59.93957
624.0000      	16025.6    	59.91669
625.0000      	16000    	59.98934
626.0000      	15974.4    	60.04014
627.0000      	15949    	60.25914
628.0000      	15923.6    	60.44913
629.0000      	15898.3    	60.51746
630.0000      	15873    	60.42197
631.0000      	15847.9    	60.53656
632.0000      	15822.8    	60.60525
633.0000      	15797.8    	60.74039
634.0000      	15772.9    	60.87932
635.0000      	15748    	61.11628
636.0000      	15723.3    	61.33289
637.0000      	15698.6    	61.47963
638.0000      	15674    	61.66827
639.0000      	15649.5    	61.89956
640.0000      	15625    	62.15181
641.0000      	15600.6    	62.47433
642.0000      	15576.3    	62.63224
643.0000      	15552.1    	63.03326
644.0000      	15528    	63.46046
645.0000      	15503.9    	63.78054
646.0000      	15479.9    	64.07137
647.0000      	15456    	64.20652
648.0000      	15432.1    	64.56281
649.0000      	15408.3    	64.95557
650.0000      	15384.6    	65.41525
651.0000      	15361    	65.68783
652.0000      	15337.4    	66.06306
653.0000      	15313.9    	66.23113
654.0000      	15290.5    	66.70605
655.0000      	15267.2    	67.12912
656.0000      	15243.9    	67.50035
657.0000      	15220.7    	67.71185
658.0000      	15197.6    	67.92301
659.0000      	15174.5    	68.30389
660.0000      	15151.5    	68.76170
661.0000      	15128.6    	69.02557
662.0000      	15105.7    	69.37402
663.0000      	15083    	69.41021
664.0000      	15060.2    	69.54087
665.0000      	15037.6    	69.71261
666.0000      	15015    	70.09141
667.0000      	14992.5    	70.20612
668.0000      	14970.1    	70.24295
669.0000      	14947.7    	70.25964
670.0000      	14925.4    	70.26170
671.0000      	14903.1    	70.39165
672.0000      	14881    	70.39649
673.0000      	14858.8    	70.44482
674.0000      	14836.8    	70.36981
675.0000      	14814.8    	70.35384
676.0000      	14792.9    	70.15630
677.0000      	14771    	70.01330
678.0000      	14749.3    	69.97183
679.0000      	14727.5    	69.99923
680.0000      	14705.9    	69.93182
681.0000      	14684.3    	69.77216
682.0000      	14662.8    	69.55660
683.0000      	14641.3    	69.40186
684.0000      	14619.9    	69.17735
685.0000      	14598.5    	69.02161
686.0000      	14577.3    	68.91106
687.0000      	14556    	68.61316
688.0000      	14534.9    	68.48494
689.0000      	14513.8    	68.28925
690.0000      	14492.8    	68.42575
691.0000      	14471.8    	68.45097
692.0000      	14450.9    	68.41559
693.0000      	14430    	68.43241
694.0000      	14409.2    	68.44463
695.0000      	14388.5    	68.45200
696.0000      	14367.8    	68.42551
697.0000      	14347.2    	68.33965
698.0000      	14326.6    	68.28089
699.0000      	14306.2    	68.05413
700.0000      	14285.7    	68.13501
701.0000      	14265.3    	68.38131
702.0000      	14245    	68.56040
703.0000      	14224.8    	68.45940
704.0000      	14204.5    	68.21265
705.0000      	14184.4    	68.10996
706.0000      	14164.3    	68.00588
707.0000      	14144.3    	67.93137
708.0000      	14124.3    	67.92829
709.0000      	14104.4    	67.86618
710.0000      	14084.5    	67.83035
711.0000      	14064.7    	67.79066
712.0000      	14044.9    	67.74581
713.0000      	14025.2    	67.74464
714.0000      	14005.6    	67.57671
715.0000      	13986    	67.57961
716.0000      	13966.5    	67.50334
717.0000      	13947    	67.77796
718.0000      	13927.6    	67.88445
719.0000      	13908.2    	68.14954
720.0000      	13888.9    	68.09338
721.0000      	13869.6    	68.22300
722.0000      	13850.4    	68.59658
723.0000      	13831.3    	68.69971
724.0000      	13812.2    	68.97343
725.0000      	13793.1    	68.98755
726.0000      	13774.1    	69.24446
727.0000      	13755.2    	69.13020
728.0000      	13736.3    	69.24001
729.0000      	13717.4    	69.70099
730.0000      	13698.6    	70.17767
731.0000      	13679.9    	70.30440
732.0000      	13661.2    	70.29660
733.0000      	13642.6    	70.42029
734.0000      	13624    	70.79836
735.0000      	13605.4    	71.18040
736.0000      	13587    	71.53909
737.0000      	13568.5    	71.74535
738.0000      	13550.1    	72.19936
739.0000      	13531.8    	72.33396
740.0000      	13513.5    	72.38042
741.0000      	13495.3    	72.77178
742.0000      	13477.1    	73.04273
743.0000      	13459    	73.97250
744.0000      	13440.9    	74.63403
745.0000      	13422.8    	75.06917
746.0000      	13404.8    	75.34030
747.0000      	13386.9    	75.47913
748.0000      	13369    	76.09113
749.0000      	13351.1    	76.67623
750.0000      	13333.3    	77.24875
751.0000      	13315.6    	77.40500
752.0000      	13297.9    	77.66106
753.0000      	13280.2    	78.27843
754.0000      	13262.6    	78.85117
755.0000      	13245    	79.16000
756.0000      	13227.5    	79.27261
757.0000      	13210    	79.42348
758.0000      	13192.6    	80.00068
759.0000      	13175.2    	80.67791
760.0000      	13157.9    	81.39217
761.0000      	13140.6    	81.62856
762.0000      	13123.4    	81.91561
763.0000      	13106.2    	82.05649
764.0000      	13089    	82.08450
765.0000      	13071.9    	82.21263
766.0000      	13054.8    	82.27613
767.0000      	13037.8    	82.34405
768.0000      	13020.8    	82.47894
769.0000      	13003.9    	82.91885
770.0000      	12987    	83.12418
771.0000      	12970.2    	83.54498
772.0000      	12953.4    	83.86373
773.0000      	12936.6    	83.92950
774.0000      	12919.9    	83.93262
775.0000      	12903.2    	83.57510
776.0000      	12886.6    	83.44100
777.0000      	12870    	83.57903
778.0000      	12853.5    	83.79086
779.0000      	12837    	83.98621
780.0000      	12820.5    	83.92886
781.0000      	12804.1    	83.68610
782.0000      	12787.7    	83.58936
783.0000      	12771.4    	83.79391
784.0000      	12755.1    	83.90718
785.0000      	12738.9    	84.12668
786.0000      	12722.6    	84.33150
787.0000      	12706.5    	84.19711
788.0000      	12690.4    	84.30024
789.0000      	12674.3    	84.06741
790.0000      	12658.2    	84.19263
791.0000      	12642.2    	83.78663
792.0000      	12626.3    	83.30376
793.0000      	12610.3    	83.18764
794.0000      	12594.5    	83.32207
795.0000      	12578.6    	83.76306
796.0000      	12562.8    	83.83633
797.0000      	12547.1    	83.93647
798.0000      	12531.3    	83.55960
799.0000      	12515.6    	83.43865
800.0000      	12500    	83.62579