File: data/Reflectance_measurements/Reflectance_2019_material/25/25_1.txt
Unit Serial No : 240-IM0P2424-EU
Integration Time : 10 ms
Time Average: 10
Binning Average: 2
FFT Smoothing: 0%
Project Name : RPS900-R
Sample Name :  SM240-IMOP2424-EU
Measurement No : 1
Measurement Time : 06/03/2019   14:48:56

Wavelength(nm)	Wavenumber(1/cm)	Transmittance(%)
300.0000      	33333.3    	14.46003
301.0000      	33222.6    	15.11066
302.0000      	33112.6    	14.40894
303.0000      	33003.3    	13.64842
304.0000      	32894.7    	12.94143
305.0000      	32786.9    	12.27445
306.0000      	32679.7    	12.24147
307.0000      	32573.3    	12.11364
308.0000      	32467.5    	12.17674
309.0000      	32362.5    	11.07185
310.0000      	32258.1    	11.05004
311.0000      	32154.3    	11.31657
312.0000      	32051.3    	10.93156
313.0000      	31948.9    	10.65230
314.0000      	31847.1    	10.25964
315.0000      	31746    	10.06191
316.0000      	31645.6    	9.98638
317.0000      	31545.7    	9.75377
318.0000      	31446.5    	9.35618
319.0000      	31348    	9.33208
320.0000      	31250    	9.18949
321.0000      	31152.6    	8.74210
322.0000      	31055.9    	8.68290
323.0000      	30959.8    	8.92035
324.0000      	30864.2    	8.65603
325.0000      	30769.2    	8.59286
326.0000      	30674.8    	8.45884
327.0000      	30581    	8.28940
328.0000      	30487.8    	7.75403
329.0000      	30395.1    	8.10371
330.0000      	30303    	8.26989
331.0000      	30211.5    	8.38345
332.0000      	30120.5    	8.39090
333.0000      	30030    	8.26669
334.0000      	29940.1    	8.49974
335.0000      	29850.7    	8.29887
336.0000      	29761.9    	8.21112
337.0000      	29673.6    	8.23019
338.0000      	29585.8    	8.48606
339.0000      	29498.5    	8.22707
340.0000      	29411.8    	8.21986
341.0000      	29325.5    	8.44141
342.0000      	29239.8    	8.60784
343.0000      	29154.5    	8.39924
344.0000      	29069.8    	8.58738
345.0000      	28985.5    	8.72987
346.0000      	28901.7    	8.61447
347.0000      	28818.4    	8.42766
348.0000      	28735.6    	8.55826
349.0000      	28653.3    	8.80559
350.0000      	28571.4    	9.12931
351.0000      	28490    	9.27544
352.0000      	28409.1    	9.11118
353.0000      	28328.6    	9.17053
354.0000      	28248.6    	9.56357
355.0000      	28169    	9.73332
356.0000      	28089.9    	10.11906
357.0000      	28011.2    	10.21275
358.0000      	27933    	10.40594
359.0000      	27855.2    	10.54513
360.0000      	27777.8    	10.81641
361.0000      	27700.8    	10.84810
362.0000      	27624.3    	11.03188
363.0000      	27548.2    	11.33581
364.0000      	27472.5    	11.71064
365.0000      	27397.3    	11.96087
366.0000      	27322.4    	11.97850
367.0000      	27248    	12.12742
368.0000      	27173.9    	12.16349
369.0000      	27100.3    	12.31474
370.0000      	27027    	12.57381
371.0000      	26954.2    	12.75511
372.0000      	26881.7    	13.16130
373.0000      	26809.7    	13.39704
374.0000      	26738    	13.72749
375.0000      	26666.7    	13.84595
376.0000      	26595.7    	14.12721
377.0000      	26525.2    	14.52086
378.0000      	26455    	14.98977
379.0000      	26385.2    	15.35170
380.0000      	26315.8    	15.78853
381.0000      	26246.7    	16.24472
382.0000      	26178    	16.50207
383.0000      	26109.7    	16.96086
384.0000      	26041.7    	17.24447
385.0000      	25974    	17.65838
386.0000      	25906.7    	18.09992
387.0000      	25839.8    	18.58073
388.0000      	25773.2    	18.86665
389.0000      	25706.9    	19.33977
390.0000      	25641    	19.77110
391.0000      	25575.4    	20.03029
392.0000      	25510.2    	20.35871
393.0000      	25445.3    	21.00745
394.0000      	25380.7    	21.57599
395.0000      	25316.5    	21.84602
396.0000      	25252.5    	22.34615
397.0000      	25188.9    	22.93952
398.0000      	25125.6    	23.65341
399.0000      	25062.7    	24.22619
400.0000      	25000    	24.88440
401.0000      	24937.7    	25.57606
402.0000      	24875.6    	25.99434
403.0000      	24813.9    	26.72347
404.0000      	24752.5    	27.52450
405.0000      	24691.4    	28.51789
406.0000      	24630.5    	29.38735
407.0000      	24570    	30.45795
408.0000      	24509.8    	31.65254
409.0000      	24449.9    	32.61932
410.0000      	24390.2    	33.48523
411.0000      	24330.9    	34.46014
412.0000      	24271.8    	35.05088
413.0000      	24213.1    	36.08936
414.0000      	24154.6    	36.95874
415.0000      	24096.4    	37.66877
416.0000      	24038.5    	38.49958
417.0000      	23980.8    	39.09932
418.0000      	23923.4    	39.22796
419.0000      	23866.3    	39.46542
420.0000      	23809.5    	39.88044
421.0000      	23753    	40.22070
422.0000      	23696.7    	40.58841
423.0000      	23640.7    	40.75035
424.0000      	23584.9    	41.02437
425.0000      	23529.4    	41.47244
426.0000      	23474.2    	41.91636
427.0000      	23419.2    	42.37477
428.0000      	23364.5    	42.64966
429.0000      	23310    	42.78328
430.0000      	23255.8    	42.90338
431.0000      	23201.9    	43.22778
432.0000      	23148.1    	43.67198
433.0000      	23094.7    	44.05140
434.0000      	23041.5    	44.20166
435.0000      	22988.5    	44.49502
436.0000      	22935.8    	44.95832
437.0000      	22883.3    	45.22477
438.0000      	22831.1    	45.20462
439.0000      	22779    	45.18560
440.0000      	22727.3    	45.41011
441.0000      	22675.7    	45.49883
442.0000      	22624.4    	45.42145
443.0000      	22573.4    	45.41494
444.0000      	22522.5    	45.58989
445.0000      	22471.9    	45.70201
446.0000      	22421.5    	45.65818
447.0000      	22371.4    	45.46210
448.0000      	22321.4    	45.08027
449.0000      	22271.7    	44.81417
450.0000      	22222.2    	44.63785
451.0000      	22172.9    	44.58437
452.0000      	22123.9    	44.69186
453.0000      	22075.1    	44.77225
454.0000      	22026.4    	44.84078
455.0000      	21978    	44.86683
456.0000      	21929.8    	44.94262
457.0000      	21881.8    	44.95492
458.0000      	21834.1    	44.97678
459.0000      	21786.5    	45.01075
460.0000      	21739.1    	45.18666
461.0000      	21692    	45.28265
462.0000      	21645    	45.31864
463.0000      	21598.3    	45.38806
464.0000      	21551.7    	45.43812
465.0000      	21505.4    	45.53311
466.0000      	21459.2    	45.65736
467.0000      	21413.3    	45.78606
468.0000      	21367.5    	45.91903
469.0000      	21322    	46.02915
470.0000      	21276.6    	46.14757
471.0000      	21231.4    	46.36048
472.0000      	21186.4    	46.60463
473.0000      	21141.6    	46.81197
474.0000      	21097    	47.01458
475.0000      	21052.6    	47.17845
476.0000      	21008.4    	47.37768
477.0000      	20964.4    	47.66994
478.0000      	20920.5    	47.78692
479.0000      	20876.8    	47.92464
480.0000      	20833.3    	48.06097
481.0000      	20790    	48.22744
482.0000      	20746.9    	48.42634
483.0000      	20703.9    	48.61871
484.0000      	20661.2    	48.86438
485.0000      	20618.6    	48.98804
486.0000      	20576.1    	49.23585
487.0000      	20533.9    	49.41110
488.0000      	20491.8    	49.59115
489.0000      	20449.9    	49.85289
490.0000      	20408.2    	50.10240
491.0000      	20366.6    	50.30967
492.0000      	20325.2    	50.39175
493.0000      	20284    	50.52933
494.0000      	20242.9    	50.64183
495.0000      	20202    	50.78206
496.0000      	20161.3    	51.00764
497.0000      	20120.7    	51.25612
498.0000      	20080.3    	51.41926
499.0000      	20040.1    	51.47404
500.0000      	20000    	51.52263
501.0000      	19960.1    	51.57111
502.0000      	19920.3    	51.67558
503.0000      	19880.7    	51.69180
504.0000      	19841.3    	51.66153
505.0000      	19802    	51.49472
506.0000      	19762.8    	51.42523
507.0000      	19723.9    	51.27858
508.0000      	19685    	51.17597
509.0000      	19646.4    	50.98325
510.0000      	19607.8    	50.68465
511.0000      	19569.5    	50.41791
512.0000      	19531.2    	50.12165
513.0000      	19493.2    	49.90828
514.0000      	19455.3    	49.49898
515.0000      	19417.5    	49.04678
516.0000      	19379.8    	48.62661
517.0000      	19342.4    	48.14540
518.0000      	19305    	47.65115
519.0000      	19267.8    	47.39232
520.0000      	19230.8    	46.86687
521.0000      	19193.9    	46.28107
522.0000      	19157.1    	45.67804
523.0000      	19120.5    	45.12165
524.0000      	19084    	44.53291
525.0000      	19047.6    	43.94395
526.0000      	19011.4    	43.67909
527.0000      	18975.3    	43.20977
528.0000      	18939.4    	42.69730
529.0000      	18903.6    	42.35020
530.0000      	18867.9    	42.09195
531.0000      	18832.4    	41.75545
532.0000      	18797    	41.40315
533.0000      	18761.7    	41.25132
534.0000      	18726.6    	41.12543
535.0000      	18691.6    	40.88368
536.0000      	18656.7    	40.67672
537.0000      	18622    	40.49270
538.0000      	18587.4    	40.39733
539.0000      	18552.9    	40.32240
540.0000      	18518.5    	40.20428
541.0000      	18484.3    	40.11143
542.0000      	18450.2    	40.13977
543.0000      	18416.2    	40.18772
544.0000      	18382.4    	40.15405
545.0000      	18348.6    	40.12053
546.0000      	18315    	40.04171
547.0000      	18281.5    	39.99311
548.0000      	18248.2    	39.87512
549.0000      	18214.9    	39.66136
550.0000      	18181.8    	39.49756
551.0000      	18148.8    	39.39152
552.0000      	18115.9    	39.14827
553.0000      	18083.2    	38.82728
554.0000      	18050.5    	38.48539
555.0000      	18018    	38.16719
556.0000      	17985.6    	37.81044
557.0000      	17953.3    	37.40076
558.0000      	17921.1    	37.19875
559.0000      	17889.1    	36.76088
560.0000      	17857.1    	36.33713
561.0000      	17825.3    	35.92999
562.0000      	17793.6    	35.52258
563.0000      	17762    	35.14038
564.0000      	17730.5    	34.96027
565.0000      	17699.1    	34.63617
566.0000      	17667.8    	34.35134
567.0000      	17636.7    	34.07537
568.0000      	17605.6    	33.81868
569.0000      	17574.7    	33.70372
570.0000      	17543.9    	33.68936
571.0000      	17513.1    	33.70903
572.0000      	17482.5    	33.81458
573.0000      	17452    	33.94457
574.0000      	17421.6    	34.13718
575.0000      	17391.3    	34.22320
576.0000      	17361.1    	34.52612
577.0000      	17331    	34.91643
578.0000      	17301    	35.40054
579.0000      	17271.2    	35.94401
580.0000      	17241.4    	36.49237
581.0000      	17211.7    	36.83456
582.0000      	17182.1    	37.49203
583.0000      	17152.7    	38.11340
584.0000      	17123.3    	38.61320
585.0000      	17094    	39.20764
586.0000      	17064.8    	39.75649
587.0000      	17035.8    	40.06363
588.0000      	17006.8    	40.52777
589.0000      	16977.9    	41.02187
590.0000      	16949.2    	41.43174
591.0000      	16920.5    	41.86877
592.0000      	16891.9    	42.15184
593.0000      	16863.4    	42.28329
594.0000      	16835    	42.49596
595.0000      	16806.7    	42.82662
596.0000      	16778.5    	43.05207
597.0000      	16750.4    	43.13396
598.0000      	16722.4    	43.18831
599.0000      	16694.5    	43.20972
600.0000      	16666.7    	43.32499
601.0000      	16638.9    	43.44102
602.0000      	16611.3    	43.48993
603.0000      	16583.7    	43.36100
604.0000      	16556.3    	43.26128
605.0000      	16528.9    	43.20791
606.0000      	16501.7    	43.33957
607.0000      	16474.5    	43.34663
608.0000      	16447.4    	43.23652
609.0000      	16420.4    	43.18700
610.0000      	16393.4    	43.16581
611.0000      	16366.6    	43.23694
612.0000      	16339.9    	43.29674
613.0000      	16313.2    	43.31132
614.0000      	16286.6    	43.20351
615.0000      	16260.2    	43.19268
616.0000      	16233.8    	43.18193
617.0000      	16207.5    	43.18900
618.0000      	16181.2    	43.14458
619.0000      	16155.1    	43.12617
620.0000      	16129    	43.05194
621.0000      	16103.1    	43.03453
622.0000      	16077.2    	43.04687
623.0000      	16051.4    	43.09541
624.0000      	16025.6    	43.11395
625.0000      	16000    	43.04301
626.0000      	15974.4    	43.05401
627.0000      	15949    	43.13875
628.0000      	15923.6    	43.33089
629.0000      	15898.3    	43.42792
630.0000      	15873    	43.38121
631.0000      	15847.9    	43.38045
632.0000      	15822.8    	43.45134
633.0000      	15797.8    	43.56152
634.0000      	15772.9    	43.64874
635.0000      	15748    	43.75846
636.0000      	15723.3    	43.84482
637.0000      	15698.6    	43.89198
638.0000      	15674    	43.90190
639.0000      	15649.5    	43.99169
640.0000      	15625    	44.16354
641.0000      	15600.6    	44.28059
642.0000      	15576.3    	44.34892
643.0000      	15552.1    	44.57136
644.0000      	15528    	44.84962
645.0000      	15503.9    	45.08191
646.0000      	15479.9    	45.23181
647.0000      	15456    	45.34398
648.0000      	15432.1    	45.52584
649.0000      	15408.3    	45.77681
650.0000      	15384.6    	46.05856
651.0000      	15361    	46.25665
652.0000      	15337.4    	46.46779
653.0000      	15313.9    	46.58773
654.0000      	15290.5    	46.79516
655.0000      	15267.2    	47.07193
656.0000      	15243.9    	47.35551
657.0000      	15220.7    	47.53508
658.0000      	15197.6    	47.70541
659.0000      	15174.5    	47.89943
660.0000      	15151.5    	48.27346
661.0000      	15128.6    	48.46362
662.0000      	15105.7    	48.74683
663.0000      	15083    	48.87223
664.0000      	15060.2    	49.09045
665.0000      	15037.6    	49.13525
666.0000      	15015    	49.15269
667.0000      	14992.5    	49.28032
668.0000      	14970.1    	49.39717
669.0000      	14947.7    	49.47466
670.0000      	14925.4    	49.35958
671.0000      	14903.1    	49.27717
672.0000      	14881    	49.24675
673.0000      	14858.8    	49.24636
674.0000      	14836.8    	49.18834
675.0000      	14814.8    	49.18529
676.0000      	14792.9    	49.06852
677.0000      	14771    	49.06484
678.0000      	14749.3    	49.01415
679.0000      	14727.5    	49.01928
680.0000      	14705.9    	49.01161
681.0000      	14684.3    	48.95406
682.0000      	14662.8    	48.85728
683.0000      	14641.3    	48.72335
684.0000      	14619.9    	48.64084
685.0000      	14598.5    	48.35622
686.0000      	14577.3    	48.17832
687.0000      	14556    	47.93930
688.0000      	14534.9    	47.96251
689.0000      	14513.8    	47.81383
690.0000      	14492.8    	47.83149
691.0000      	14471.8    	47.80019
692.0000      	14450.9    	47.69566
693.0000      	14430    	47.65874
694.0000      	14409.2    	47.48100
695.0000      	14388.5    	47.35493
696.0000      	14367.8    	47.11951
697.0000      	14347.2    	46.94064
698.0000      	14326.6    	46.88562
699.0000      	14306.2    	46.81231
700.0000      	14285.7    	46.88792
701.0000      	14265.3    	46.82985
702.0000      	14245    	46.82307
703.0000      	14224.8    	46.69376
704.0000      	14204.5    	46.48013
705.0000      	14184.4    	46.23130
706.0000      	14164.3    	45.97737
707.0000      	14144.3    	45.81376
708.0000      	14124.3    	45.71777
709.0000      	14104.4    	45.65746
710.0000      	14084.5    	45.67939
711.0000      	14064.7    	45.66365
712.0000      	14044.9    	45.57566
713.0000      	14025.2    	45.52667
714.0000      	14005.6    	45.47526
715.0000      	13986    	45.58266
716.0000      	13966.5    	45.55818
717.0000      	13947    	45.56517
718.0000      	13927.6    	45.58340
719.0000      	13908.2    	45.77523
720.0000      	13888.9    	45.93903
721.0000      	13869.6    	46.03572
722.0000      	13850.4    	46.21210
723.0000      	13831.3    	46.38656
724.0000      	13812.2    	46.81458
725.0000      	13793.1    	47.06371
726.0000      	13774.1    	47.39869
727.0000      	13755.2    	47.60497
728.0000      	13736.3    	47.79142
729.0000      	13717.4    	47.99911
730.0000      	13698.6    	48.21989
731.0000      	13679.9    	48.47184
732.0000      	13661.2    	48.64689
733.0000      	13642.6    	48.99620
734.0000      	13624    	49.45208
735.0000      	13605.4    	49.88566
736.0000      	13587    	50.24580
737.0000      	13568.5    	50.48824
738.0000      	13550.1    	51.09529
739.0000      	13531.8    	51.54499
740.0000      	13513.5    	51.97237
741.0000      	13495.3    	52.58998
742.0000      	13477.1    	52.91214
743.0000      	13459    	53.58928
744.0000      	13440.9    	54.18326
745.0000      	13422.8    	54.78555
746.0000      	13404.8    	55.34066
747.0000      	13386.9    	55.73528
748.0000      	13369    	56.58134
749.0000      	13351.1    	57.07058
750.0000      	13333.3    	57.61532
751.0000      	13315.6    	57.86287
752.0000      	13297.9    	58.51713
753.0000      	13280.2    	59.50504
754.0000      	13262.6    	60.35841
755.0000      	13245    	61.09887
756.0000      	13227.5    	61.34176
757.0000      	13210    	61.98631
758.0000      	13192.6    	62.63797
759.0000      	13175.2    	63.38361
760.0000      	13157.9    	64.08526
761.0000      	13140.6    	64.39603
762.0000      	13123.4    	64.80781
763.0000      	13106.2    	65.34732
764.0000      	13089    	65.79604
765.0000      	13071.9    	66.00120
766.0000      	13054.8    	66.14368
767.0000      	13037.8    	66.27094
768.0000      	13020.8    	66.40958
769.0000      	13003.9    	66.51988
770.0000      	12987    	66.71770
771.0000      	12970.2    	67.08120
772.0000      	12953.4    	67.22752
773.0000      	12936.6    	67.27983
774.0000      	12919.9    	67.41855
775.0000      	12903.2    	67.57723
776.0000      	12886.6    	67.56989
777.0000      	12870    	67.52053
778.0000      	12853.5    	67.52077
779.0000      	12837    	67.71321
780.0000      	12820.5    	67.75503
781.0000      	12804.1    	67.67620
782.0000      	12787.7    	67.77316
783.0000      	12771.4    	68.02924
784.0000      	12755.1    	68.08434
785.0000      	12738.9    	68.07822
786.0000      	12722.6    	67.95609
787.0000      	12706.5    	67.82835
788.0000      	12690.4    	68.16071
789.0000      	12674.3    	68.21140
790.0000      	12658.2    	68.40891
791.0000      	12642.2    	67.97693
792.0000      	12626.3    	67.56121
793.0000      	12610.3    	67.49567
794.0000      	12594.5    	67.67211
795.0000      	12578.6    	68.16045
796.0000      	12562.8    	68.23897
797.0000      	12547.1    	68.34428
798.0000      	12531.3    	68.22645
799.0000      	12515.6    	68.06618
800.0000      	12500    	68.20702