File: data/Reflectance_measurements/Reflectance_2019_material/25/25_2 .txt
Unit Serial No : 240-IM0P2424-EU
Integration Time : 10 ms
Time Average: 10
Binning Average: 2
FFT Smoothing: 0%
Project Name : RPS900-R
Sample Name :  SM240-IMOP2424-EU
Measurement No : 1
Measurement Time : 06/03/2019   14:49:08

Wavelength(nm)	Wavenumber(1/cm)	Transmittance(%)
300.0000      	33333.3    	14.35495
301.0000      	33222.6    	14.08465
302.0000      	33112.6    	13.53454
303.0000      	33003.3    	13.57207
304.0000      	32894.7    	13.78330
305.0000      	32786.9    	13.48670
306.0000      	32679.7    	12.43282
307.0000      	32573.3    	12.04958
308.0000      	32467.5    	12.54048
309.0000      	32362.5    	11.37936
310.0000      	32258.1    	10.74104
311.0000      	32154.3    	10.87862
312.0000      	32051.3    	10.23698
313.0000      	31948.9    	10.12118
314.0000      	31847.1    	10.03934
315.0000      	31746    	9.85360
316.0000      	31645.6    	10.50647
317.0000      	31545.7    	10.31944
318.0000      	31446.5    	9.89313
319.0000      	31348    	9.52888
320.0000      	31250    	9.33526
321.0000      	31152.6    	8.87625
322.0000      	31055.9    	8.64820
323.0000      	30959.8    	8.59345
324.0000      	30864.2    	8.49290
325.0000      	30769.2    	8.58288
326.0000      	30674.8    	8.87026
327.0000      	30581    	9.21780
328.0000      	30487.8    	8.76048
329.0000      	30395.1    	8.45319
330.0000      	30303    	8.15398
331.0000      	30211.5    	8.10893
332.0000      	30120.5    	8.29685
333.0000      	30030    	8.20396
334.0000      	29940.1    	8.42942
335.0000      	29850.7    	8.13435
336.0000      	29761.9    	8.05069
337.0000      	29673.6    	8.03065
338.0000      	29585.8    	8.19700
339.0000      	29498.5    	8.38690
340.0000      	29411.8    	8.34365
341.0000      	29325.5    	8.29565
342.0000      	29239.8    	8.30183
343.0000      	29154.5    	8.14497
344.0000      	29069.8    	8.12418
345.0000      	28985.5    	8.16964
346.0000      	28901.7    	8.32919
347.0000      	28818.4    	8.33422
348.0000      	28735.6    	8.57260
349.0000      	28653.3    	8.92157
350.0000      	28571.4    	9.06949
351.0000      	28490    	9.09855
352.0000      	28409.1    	9.11813
353.0000      	28328.6    	9.39972
354.0000      	28248.6    	9.70323
355.0000      	28169    	9.80068
356.0000      	28089.9    	10.26437
357.0000      	28011.2    	10.38158
358.0000      	27933    	10.58533
359.0000      	27855.2    	10.80967
360.0000      	27777.8    	11.10969
361.0000      	27700.8    	11.10452
362.0000      	27624.3    	11.14559
363.0000      	27548.2    	11.22655
364.0000      	27472.5    	11.32509
365.0000      	27397.3    	11.42918
366.0000      	27322.4    	11.67879
367.0000      	27248    	11.92189
368.0000      	27173.9    	12.27796
369.0000      	27100.3    	12.54256
370.0000      	27027    	12.77670
371.0000      	26954.2    	12.81523
372.0000      	26881.7    	13.11060
373.0000      	26809.7    	13.44450
374.0000      	26738    	13.85267
375.0000      	26666.7    	14.07941
376.0000      	26595.7    	14.45467
377.0000      	26525.2    	14.73682
378.0000      	26455    	15.04134
379.0000      	26385.2    	15.49570
380.0000      	26315.8    	16.08988
381.0000      	26246.7    	16.50656
382.0000      	26178    	16.65917
383.0000      	26109.7    	17.15586
384.0000      	26041.7    	17.47095
385.0000      	25974    	17.93070
386.0000      	25906.7    	18.29241
387.0000      	25839.8    	18.70468
388.0000      	25773.2    	19.04529
389.0000      	25706.9    	19.48604
390.0000      	25641    	19.92488
391.0000      	25575.4    	20.24287
392.0000      	25510.2    	20.51225
393.0000      	25445.3    	20.96478
394.0000      	25380.7    	21.44404
395.0000      	25316.5    	21.89668
396.0000      	25252.5    	22.48484
397.0000      	25188.9    	23.09700
398.0000      	25125.6    	23.71139
399.0000      	25062.7    	24.38792
400.0000      	25000    	25.10436
401.0000      	24937.7    	25.87107
402.0000      	24875.6    	26.25074
403.0000      	24813.9    	26.98286
404.0000      	24752.5    	27.93016
405.0000      	24691.4    	29.01921
406.0000      	24630.5    	29.78867
407.0000      	24570    	30.77106
408.0000      	24509.8    	31.71825
409.0000      	24449.9    	32.60525
410.0000      	24390.2    	33.54847
411.0000      	24330.9    	34.60386
412.0000      	24271.8    	35.11767
413.0000      	24213.1    	36.12301
414.0000      	24154.6    	37.05301
415.0000      	24096.4    	37.73221
416.0000      	24038.5    	38.18336
417.0000      	23980.8    	38.58553
418.0000      	23923.4    	38.92398
419.0000      	23866.3    	39.38433
420.0000      	23809.5    	39.66295
421.0000      	23753    	39.87274
422.0000      	23696.7    	40.30190
423.0000      	23640.7    	40.81942
424.0000      	23584.9    	41.20667
425.0000      	23529.4    	41.39496
426.0000      	23474.2    	41.68204
427.0000      	23419.2    	42.03446
428.0000      	23364.5    	42.33997
429.0000      	23310    	42.64234
430.0000      	23255.8    	42.82222
431.0000      	23201.9    	43.27439
432.0000      	23148.1    	43.64641
433.0000      	23094.7    	43.98042
434.0000      	23041.5    	44.29102
435.0000      	22988.5    	44.56664
436.0000      	22935.8    	44.76389
437.0000      	22883.3    	45.08028
438.0000      	22831.1    	45.19058
439.0000      	22779    	45.30922
440.0000      	22727.3    	45.37365
441.0000      	22675.7    	45.34927
442.0000      	22624.4    	45.25861
443.0000      	22573.4    	45.27311
444.0000      	22522.5    	45.26164
445.0000      	22471.9    	45.35389
446.0000      	22421.5    	45.38050
447.0000      	22371.4    	45.31703
448.0000      	22321.4    	45.02756
449.0000      	22271.7    	44.80744
450.0000      	22222.2    	44.55068
451.0000      	22172.9    	44.44574
452.0000      	22123.9    	44.66036
453.0000      	22075.1    	44.78524
454.0000      	22026.4    	44.78799
455.0000      	21978    	44.79188
456.0000      	21929.8    	44.95734
457.0000      	21881.8    	45.04462
458.0000      	21834.1    	45.01804
459.0000      	21786.5    	45.03443
460.0000      	21739.1    	44.97936
461.0000      	21692    	44.99762
462.0000      	21645    	45.05418
463.0000      	21598.3    	45.22779
464.0000      	21551.7    	45.31805
465.0000      	21505.4    	45.42777
466.0000      	21459.2    	45.56302
467.0000      	21413.3    	45.50651
468.0000      	21367.5    	45.60826
469.0000      	21322    	45.85667
470.0000      	21276.6    	46.05511
471.0000      	21231.4    	46.24728
472.0000      	21186.4    	46.44510
473.0000      	21141.6    	46.71562
474.0000      	21097    	47.07607
475.0000      	21052.6    	47.33452
476.0000      	21008.4    	47.49556
477.0000      	20964.4    	47.63408
478.0000      	20920.5    	47.68335
479.0000      	20876.8    	47.76948
480.0000      	20833.3    	47.96160
481.0000      	20790    	48.19096
482.0000      	20746.9    	48.43195
483.0000      	20703.9    	48.62819
484.0000      	20661.2    	48.87860
485.0000      	20618.6    	49.00051
486.0000      	20576.1    	49.17763
487.0000      	20533.9    	49.35565
488.0000      	20491.8    	49.50024
489.0000      	20449.9    	49.75285
490.0000      	20408.2    	49.92075
491.0000      	20366.6    	50.14407
492.0000      	20325.2    	50.27007
493.0000      	20284    	50.52167
494.0000      	20242.9    	50.71939
495.0000      	20202    	50.83887
496.0000      	20161.3    	50.96134
497.0000      	20120.7    	51.11950
498.0000      	20080.3    	51.28064
499.0000      	20040.1    	51.35166
500.0000      	20000    	51.41243
501.0000      	19960.1    	51.42370
502.0000      	19920.3    	51.46345
503.0000      	19880.7    	51.50405
504.0000      	19841.3    	51.49354
505.0000      	19802    	51.32896
506.0000      	19762.8    	51.24831
507.0000      	19723.9    	51.12045
508.0000      	19685    	51.02533
509.0000      	19646.4    	50.79963
510.0000      	19607.8    	50.52038
511.0000      	19569.5    	50.26597
512.0000      	19531.2    	49.88823
513.0000      	19493.2    	49.67765
514.0000      	19455.3    	49.24030
515.0000      	19417.5    	48.81417
516.0000      	19379.8    	48.37397
517.0000      	19342.4    	47.89101
518.0000      	19305    	47.42267
519.0000      	19267.8    	47.15035
520.0000      	19230.8    	46.64017
521.0000      	19193.9    	46.05426
522.0000      	19157.1    	45.50735
523.0000      	19120.5    	44.99629
524.0000      	19084    	44.49518
525.0000      	19047.6    	43.92476
526.0000      	19011.4    	43.64006
527.0000      	18975.3    	43.12223
528.0000      	18939.4    	42.67089
529.0000      	18903.6    	42.35020
530.0000      	18867.9    	42.01002
531.0000      	18832.4    	41.70257
532.0000      	18797    	41.40655
533.0000      	18761.7    	41.26693
534.0000      	18726.6    	41.03466
535.0000      	18691.6    	40.82903
536.0000      	18656.7    	40.59757
537.0000      	18622    	40.40799
538.0000      	18587.4    	40.30241
539.0000      	18552.9    	40.25755
540.0000      	18518.5    	40.21064
541.0000      	18484.3    	40.09083
542.0000      	18450.2    	40.07174
543.0000      	18416.2    	40.10726
544.0000      	18382.4    	40.08113
545.0000      	18348.6    	40.03861
546.0000      	18315    	39.99668
547.0000      	18281.5    	39.95817
548.0000      	18248.2    	39.89481
549.0000      	18214.9    	39.73230
550.0000      	18181.8    	39.56281
551.0000      	18148.8    	39.43260
552.0000      	18115.9    	39.08769
553.0000      	18083.2    	38.77890
554.0000      	18050.5    	38.48876
555.0000      	18018    	38.12249
556.0000      	17985.6    	37.76299
557.0000      	17953.3    	37.41146
558.0000      	17921.1    	37.23683
559.0000      	17889.1    	36.81297
560.0000      	17857.1    	36.39449
561.0000      	17825.3    	35.98633
562.0000      	17793.6    	35.52656
563.0000      	17762    	35.14814
564.0000      	17730.5    	34.98199
565.0000      	17699.1    	34.68663
566.0000      	17667.8    	34.36746
567.0000      	17636.7    	34.09156
568.0000      	17605.6    	33.86374
569.0000      	17574.7    	33.68996
570.0000      	17543.9    	33.64567
571.0000      	17513.1    	33.61925
572.0000      	17482.5    	33.71800
573.0000      	17452    	33.91885
574.0000      	17421.6    	34.11964
575.0000      	17391.3    	34.20885
576.0000      	17361.1    	34.49605
577.0000      	17331    	34.94792
578.0000      	17301    	35.41691
579.0000      	17271.2    	35.94547
580.0000      	17241.4    	36.50564
581.0000      	17211.7    	36.85864
582.0000      	17182.1    	37.47484
583.0000      	17152.7    	38.03926
584.0000      	17123.3    	38.58475
585.0000      	17094    	39.25626
586.0000      	17064.8    	39.82882
587.0000      	17035.8    	40.07227
588.0000      	17006.8    	40.50248
589.0000      	16977.9    	41.00232
590.0000      	16949.2    	41.45151
591.0000      	16920.5    	41.82440
592.0000      	16891.9    	42.14388
593.0000      	16863.4    	42.28115
594.0000      	16835    	42.52827
595.0000      	16806.7    	42.71556
596.0000      	16778.5    	42.86749
597.0000      	16750.4    	43.03465
598.0000      	16722.4    	43.14823
599.0000      	16694.5    	43.15243
600.0000      	16666.7    	43.13350
601.0000      	16638.9    	43.22831
602.0000      	16611.3    	43.38468
603.0000      	16583.7    	43.34224
604.0000      	16556.3    	43.26976
605.0000      	16528.9    	43.21066
606.0000      	16501.7    	43.25756
607.0000      	16474.5    	43.28975
608.0000      	16447.4    	43.20119
609.0000      	16420.4    	43.17595
610.0000      	16393.4    	43.16726
611.0000      	16366.6    	43.24030
612.0000      	16339.9    	43.20023
613.0000      	16313.2    	43.09146
614.0000      	16286.6    	43.09849
615.0000      	16260.2    	43.11675
616.0000      	16233.8    	43.10867
617.0000      	16207.5    	43.12952
618.0000      	16181.2    	43.07172
619.0000      	16155.1    	43.15326
620.0000      	16129    	43.16447
621.0000      	16103.1    	43.15702
622.0000      	16077.2    	43.07712
623.0000      	16051.4    	43.10024
624.0000      	16025.6    	43.09550
625.0000      	16000    	43.02913
626.0000      	15974.4    	43.03970
627.0000      	15949    	43.13461
628.0000      	15923.6    	43.25334
629.0000      	15898.3    	43.38368
630.0000      	15873    	43.34164
631.0000      	15847.9    	43.32021
632.0000      	15822.8    	43.32161
633.0000      	15797.8    	43.44315
634.0000      	15772.9    	43.60854
635.0000      	15748    	43.73782
636.0000      	15723.3    	43.83344
637.0000      	15698.6    	43.87289
638.0000      	15674    	43.96148
639.0000      	15649.5    	44.08877
640.0000      	15625    	44.20604
641.0000      	15600.6    	44.20215
642.0000      	15576.3    	44.24976
643.0000      	15552.1    	44.45514
644.0000      	15528    	44.75013
645.0000      	15503.9    	45.08266
646.0000      	15479.9    	45.34704
647.0000      	15456    	45.42768
648.0000      	15432.1    	45.58321
649.0000      	15408.3    	45.75206
650.0000      	15384.6    	46.00818
651.0000      	15361    	46.19667
652.0000      	15337.4    	46.47902
653.0000      	15313.9    	46.64082
654.0000      	15290.5    	46.97801
655.0000      	15267.2    	47.28212
656.0000      	15243.9    	47.51076
657.0000      	15220.7    	47.55300
658.0000      	15197.6    	47.67560
659.0000      	15174.5    	47.85934
660.0000      	15151.5    	48.20390
661.0000      	15128.6    	48.41326
662.0000      	15105.7    	48.72876
663.0000      	15083    	48.83432
664.0000      	15060.2    	48.90301
665.0000      	15037.6    	48.93847
666.0000      	15015    	48.97210
667.0000      	14992.5    	49.03849
668.0000      	14970.1    	49.10117
669.0000      	14947.7    	49.23462
670.0000      	14925.4    	49.33250
671.0000      	14903.1    	49.33184
672.0000      	14881    	49.24096
673.0000      	14858.8    	49.23325
674.0000      	14836.8    	49.20013
675.0000      	14814.8    	49.19599
676.0000      	14792.9    	49.21973
677.0000      	14771    	49.24529
678.0000      	14749.3    	49.20101
679.0000      	14727.5    	49.01408
680.0000      	14705.9    	48.77114
681.0000      	14684.3    	48.68259
682.0000      	14662.8    	48.56887
683.0000      	14641.3    	48.50389
684.0000      	14619.9    	48.27923
685.0000      	14598.5    	48.15785
686.0000      	14577.3    	48.05868
687.0000      	14556    	47.89721
688.0000      	14534.9    	47.76417
689.0000      	14513.8    	47.54299
690.0000      	14492.8    	47.52859
691.0000      	14471.8    	47.54338
692.0000      	14450.9    	47.28804
693.0000      	14430    	47.28160
694.0000      	14409.2    	47.39455
695.0000      	14388.5    	47.47856
696.0000      	14367.8    	47.24958
697.0000      	14347.2    	47.01420
698.0000      	14326.6    	46.94622
699.0000      	14306.2    	46.70472
700.0000      	14285.7    	46.58703
701.0000      	14265.3    	46.55156
702.0000      	14245    	46.50793
703.0000      	14224.8    	46.39754
704.0000      	14204.5    	46.22568
705.0000      	14184.4    	46.21155
706.0000      	14164.3    	46.13228
707.0000      	14144.3    	45.94316
708.0000      	14124.3    	45.82504
709.0000      	14104.4    	45.62067
710.0000      	14084.5    	45.52932
711.0000      	14064.7    	45.49706
712.0000      	14044.9    	45.37442
713.0000      	14025.2    	45.33767
714.0000      	14005.6    	45.31223
715.0000      	13986    	45.38036
716.0000      	13966.5    	45.37426
717.0000      	13947    	45.45216
718.0000      	13927.6    	45.47927
719.0000      	13908.2    	45.70442
720.0000      	13888.9    	45.92124
721.0000      	13869.6    	46.15687
722.0000      	13850.4    	46.33499
723.0000      	13831.3    	46.48231
724.0000      	13812.2    	46.73662
725.0000      	13793.1    	46.84292
726.0000      	13774.1    	47.02953
727.0000      	13755.2    	47.21672
728.0000      	13736.3    	47.33316
729.0000      	13717.4    	47.70715
730.0000      	13698.6    	48.02183
731.0000      	13679.9    	48.27201
732.0000      	13661.2    	48.40170
733.0000      	13642.6    	48.71579
734.0000      	13624    	49.15348
735.0000      	13605.4    	49.56041
736.0000      	13587    	49.96333
737.0000      	13568.5    	50.29165
738.0000      	13550.1    	50.96997
739.0000      	13531.8    	51.37682
740.0000      	13513.5    	51.70035
741.0000      	13495.3    	52.16504
742.0000      	13477.1    	52.49406
743.0000      	13459    	53.40002
744.0000      	13440.9    	54.17935
745.0000      	13422.8    	54.58418
746.0000      	13404.8    	55.03384
747.0000      	13386.9    	55.30338
748.0000      	13369    	56.08408
749.0000      	13351.1    	56.75612
750.0000      	13333.3    	57.67990
751.0000      	13315.6    	58.04174
752.0000      	13297.9    	58.55064
753.0000      	13280.2    	59.28490
754.0000      	13262.6    	60.01973
755.0000      	13245    	60.84024
756.0000      	13227.5    	61.14057
757.0000      	13210    	61.72017
758.0000      	13192.6    	62.38762
759.0000      	13175.2    	63.26250
760.0000      	13157.9    	63.99471
761.0000      	13140.6    	64.28172
762.0000      	13123.4    	64.63708
763.0000      	13106.2    	64.97288
764.0000      	13089    	65.30497
765.0000      	13071.9    	65.43373
766.0000      	13054.8    	65.71037
767.0000      	13037.8    	65.99590
768.0000      	13020.8    	66.38983
769.0000      	13003.9    	66.65450
770.0000      	12987    	66.80383
771.0000      	12970.2    	66.98466
772.0000      	12953.4    	67.19907
773.0000      	12936.6    	67.32611
774.0000      	12919.9    	67.42030
775.0000      	12903.2    	67.52769
776.0000      	12886.6    	67.36507
777.0000      	12870    	67.50023
778.0000      	12853.5    	67.55700
779.0000      	12837    	67.82150
780.0000      	12820.5    	67.70790
781.0000      	12804.1    	67.55446
782.0000      	12787.7    	67.47231
783.0000      	12771.4    	67.70802
784.0000      	12755.1    	67.81843
785.0000      	12738.9    	68.08382
786.0000      	12722.6    	68.04028
787.0000      	12706.5    	67.85751
788.0000      	12690.4    	68.04790
789.0000      	12674.3    	68.06350
790.0000      	12658.2    	68.14933
791.0000      	12642.2    	67.71570
792.0000      	12626.3    	67.36278
793.0000      	12610.3    	67.27600
794.0000      	12594.5    	67.42112
795.0000      	12578.6    	67.60448
796.0000      	12562.8    	67.54846
797.0000      	12547.1    	67.68594
798.0000      	12531.3    	67.73647
799.0000      	12515.6    	67.62059
800.0000      	12500    	67.53267