File: data/Reflectance_measurements/Reflectance_2019_material/25/25_3 .txt
Unit Serial No : 240-IM0P2424-EU
Integration Time : 10 ms
Time Average: 10
Binning Average: 2
FFT Smoothing: 0%
Project Name : RPS900-R
Sample Name :  SM240-IMOP2424-EU
Measurement No : 1
Measurement Time : 06/03/2019   14:49:20

Wavelength(nm)	Wavenumber(1/cm)	Transmittance(%)
300.0000      	33333.3    	13.22054
301.0000      	33222.6    	13.30546
302.0000      	33112.6    	13.07278
303.0000      	33003.3    	13.24184
304.0000      	32894.7    	13.20566
305.0000      	32786.9    	12.61856
306.0000      	32679.7    	11.99521
307.0000      	32573.3    	11.86381
308.0000      	32467.5    	12.36705
309.0000      	32362.5    	10.89296
310.0000      	32258.1    	10.65275
311.0000      	32154.3    	10.14869
312.0000      	32051.3    	9.45091
313.0000      	31948.9    	9.65240
314.0000      	31847.1    	9.98608
315.0000      	31746    	10.01510
316.0000      	31645.6    	10.21265
317.0000      	31545.7    	9.95020
318.0000      	31446.5    	9.64200
319.0000      	31348    	9.46700
320.0000      	31250    	9.55490
321.0000      	31152.6    	9.06081
322.0000      	31055.9    	8.77424
323.0000      	30959.8    	8.86674
324.0000      	30864.2    	8.59710
325.0000      	30769.2    	8.69431
326.0000      	30674.8    	8.77613
327.0000      	30581    	8.82698
328.0000      	30487.8    	8.39562
329.0000      	30395.1    	8.29189
330.0000      	30303    	8.11776
331.0000      	30211.5    	8.19525
332.0000      	30120.5    	8.50846
333.0000      	30030    	8.41600
334.0000      	29940.1    	8.70474
335.0000      	29850.7    	8.23435
336.0000      	29761.9    	8.17715
337.0000      	29673.6    	8.37692
338.0000      	29585.8    	8.63179
339.0000      	29498.5    	8.38398
340.0000      	29411.8    	8.33797
341.0000      	29325.5    	8.49350
342.0000      	29239.8    	8.65767
343.0000      	29154.5    	8.38600
344.0000      	29069.8    	8.44315
345.0000      	28985.5    	8.53691
346.0000      	28901.7    	8.51905
347.0000      	28818.4    	8.37705
348.0000      	28735.6    	8.58599
349.0000      	28653.3    	8.97910
350.0000      	28571.4    	9.45170
351.0000      	28490    	9.41945
352.0000      	28409.1    	9.30990
353.0000      	28328.6    	9.48625
354.0000      	28248.6    	9.77654
355.0000      	28169    	9.88298
356.0000      	28089.9    	10.21361
357.0000      	28011.2    	10.33852
358.0000      	27933    	10.74562
359.0000      	27855.2    	11.02013
360.0000      	27777.8    	11.22172
361.0000      	27700.8    	11.27024
362.0000      	27624.3    	11.39603
363.0000      	27548.2    	11.63409
364.0000      	27472.5    	11.72317
365.0000      	27397.3    	11.81005
366.0000      	27322.4    	12.05865
367.0000      	27248    	12.38507
368.0000      	27173.9    	12.77632
369.0000      	27100.3    	12.95395
370.0000      	27027    	13.06822
371.0000      	26954.2    	13.09899
372.0000      	26881.7    	13.23555
373.0000      	26809.7    	13.60706
374.0000      	26738    	14.11060
375.0000      	26666.7    	14.35996
376.0000      	26595.7    	14.62956
377.0000      	26525.2    	14.83036
378.0000      	26455    	15.14995
379.0000      	26385.2    	15.60423
380.0000      	26315.8    	16.08935
381.0000      	26246.7    	16.55555
382.0000      	26178    	16.71938
383.0000      	26109.7    	17.14493
384.0000      	26041.7    	17.62160
385.0000      	25974    	18.36538
386.0000      	25906.7    	18.70377
387.0000      	25839.8    	19.00008
388.0000      	25773.2    	19.18663
389.0000      	25706.9    	19.78231
390.0000      	25641    	20.33772
391.0000      	25575.4    	20.67710
392.0000      	25510.2    	20.82317
393.0000      	25445.3    	21.18905
394.0000      	25380.7    	21.63704
395.0000      	25316.5    	22.13107
396.0000      	25252.5    	22.66260
397.0000      	25188.9    	23.24423
398.0000      	25125.6    	23.96332
399.0000      	25062.7    	24.74283
400.0000      	25000    	25.51869
401.0000      	24937.7    	26.25794
402.0000      	24875.6    	26.63577
403.0000      	24813.9    	27.37921
404.0000      	24752.5    	28.11712
405.0000      	24691.4    	29.07218
406.0000      	24630.5    	29.92258
407.0000      	24570    	30.94254
408.0000      	24509.8    	32.06185
409.0000      	24449.9    	33.02617
410.0000      	24390.2    	33.93941
411.0000      	24330.9    	34.76694
412.0000      	24271.8    	35.29705
413.0000      	24213.1    	36.34726
414.0000      	24154.6    	37.21004
415.0000      	24096.4    	37.71374
416.0000      	24038.5    	38.25142
417.0000      	23980.8    	38.83652
418.0000      	23923.4    	39.25986
419.0000      	23866.3    	39.60723
420.0000      	23809.5    	39.85113
421.0000      	23753    	40.07714
422.0000      	23696.7    	40.47551
423.0000      	23640.7    	41.01388
424.0000      	23584.9    	41.37960
425.0000      	23529.4    	41.63796
426.0000      	23474.2    	42.01408
427.0000      	23419.2    	42.40313
428.0000      	23364.5    	42.55579
429.0000      	23310    	42.84872
430.0000      	23255.8    	42.99988
431.0000      	23201.9    	43.37919
432.0000      	23148.1    	43.72344
433.0000      	23094.7    	43.98560
434.0000      	23041.5    	44.19656
435.0000      	22988.5    	44.52062
436.0000      	22935.8    	44.85461
437.0000      	22883.3    	45.19539
438.0000      	22831.1    	45.17156
439.0000      	22779    	45.24779
440.0000      	22727.3    	45.41130
441.0000      	22675.7    	45.53016
442.0000      	22624.4    	45.58664
443.0000      	22573.4    	45.69130
444.0000      	22522.5    	45.71904
445.0000      	22471.9    	45.54889
446.0000      	22421.5    	45.42489
447.0000      	22371.4    	45.27032
448.0000      	22321.4    	44.97827
449.0000      	22271.7    	44.73912
450.0000      	22222.2    	44.48606
451.0000      	22172.9    	44.47799
452.0000      	22123.9    	44.72747
453.0000      	22075.1    	44.84372
454.0000      	22026.4    	44.84591
455.0000      	21978    	44.87181
456.0000      	21929.8    	45.02488
457.0000      	21881.8    	45.09370
458.0000      	21834.1    	45.13813
459.0000      	21786.5    	45.24529
460.0000      	21739.1    	45.31078
461.0000      	21692    	45.26207
462.0000      	21645    	45.23392
463.0000      	21598.3    	45.36040
464.0000      	21551.7    	45.57174
465.0000      	21505.4    	45.80696
466.0000      	21459.2    	45.88772
467.0000      	21413.3    	45.95149
468.0000      	21367.5    	46.00840
469.0000      	21322    	46.05068
470.0000      	21276.6    	46.15931
471.0000      	21231.4    	46.30190
472.0000      	21186.4    	46.57139
473.0000      	21141.6    	46.76799
474.0000      	21097    	47.13294
475.0000      	21052.6    	47.44407
476.0000      	21008.4    	47.69330
477.0000      	20964.4    	47.80513
478.0000      	20920.5    	47.88919
479.0000      	20876.8    	48.04567
480.0000      	20833.3    	48.17601
481.0000      	20790    	48.36003
482.0000      	20746.9    	48.53399
483.0000      	20703.9    	48.74419
484.0000      	20661.2    	48.95954
485.0000      	20618.6    	49.10307
486.0000      	20576.1    	49.34808
487.0000      	20533.9    	49.56082
488.0000      	20491.8    	49.77629
489.0000      	20449.9    	50.04055
490.0000      	20408.2    	50.26117
491.0000      	20366.6    	50.41372
492.0000      	20325.2    	50.48262
493.0000      	20284    	50.66515
494.0000      	20242.9    	50.84994
495.0000      	20202    	50.97892
496.0000      	20161.3    	51.08171
497.0000      	20120.7    	51.24162
498.0000      	20080.3    	51.45534
499.0000      	20040.1    	51.54030
500.0000      	20000    	51.63964
501.0000      	19960.1    	51.59494
502.0000      	19920.3    	51.51375
503.0000      	19880.7    	51.55026
504.0000      	19841.3    	51.71653
505.0000      	19802    	51.72204
506.0000      	19762.8    	51.66111
507.0000      	19723.9    	51.42564
508.0000      	19685    	51.15959
509.0000      	19646.4    	50.93941
510.0000      	19607.8    	50.70306
511.0000      	19569.5    	50.47168
512.0000      	19531.2    	50.08747
513.0000      	19493.2    	49.90350
514.0000      	19455.3    	49.49863
515.0000      	19417.5    	49.09903
516.0000      	19379.8    	48.58169
517.0000      	19342.4    	48.04151
518.0000      	19305    	47.52057
519.0000      	19267.8    	47.26346
520.0000      	19230.8    	46.81937
521.0000      	19193.9    	46.26274
522.0000      	19157.1    	45.72233
523.0000      	19120.5    	45.19529
524.0000      	19084    	44.65144
525.0000      	19047.6    	44.01421
526.0000      	19011.4    	43.79595
527.0000      	18975.3    	43.40205
528.0000      	18939.4    	43.00544
529.0000      	18903.6    	42.60031
530.0000      	18867.9    	42.22506
531.0000      	18832.4    	41.89925
532.0000      	18797    	41.61462
533.0000      	18761.7    	41.48526
534.0000      	18726.6    	41.29895
535.0000      	18691.6    	41.10126
536.0000      	18656.7    	40.87091
537.0000      	18622    	40.58339
538.0000      	18587.4    	40.45374
539.0000      	18552.9    	40.39762
540.0000      	18518.5    	40.37965
541.0000      	18484.3    	40.31446
542.0000      	18450.2    	40.28195
543.0000      	18416.2    	40.24117
544.0000      	18382.4    	40.17548
545.0000      	18348.6    	40.12661
546.0000      	18315    	40.06290
547.0000      	18281.5    	40.02730
548.0000      	18248.2    	39.97804
549.0000      	18214.9    	39.83076
550.0000      	18181.8    	39.64732
551.0000      	18148.8    	39.51528
552.0000      	18115.9    	39.23468
553.0000      	18083.2    	38.97808
554.0000      	18050.5    	38.68877
555.0000      	18018    	38.27153
556.0000      	17985.6    	37.90109
557.0000      	17953.3    	37.50037
558.0000      	17921.1    	37.33271
559.0000      	17889.1    	36.91955
560.0000      	17857.1    	36.49184
561.0000      	17825.3    	36.04965
562.0000      	17793.6    	35.63571
563.0000      	17762    	35.30663
564.0000      	17730.5    	35.14687
565.0000      	17699.1    	34.80223
566.0000      	17667.8    	34.50681
567.0000      	17636.7    	34.30487
568.0000      	17605.6    	34.10655
569.0000      	17574.7    	33.91470
570.0000      	17543.9    	33.86509
571.0000      	17513.1    	33.86748
572.0000      	17482.5    	33.92920
573.0000      	17452    	34.07647
574.0000      	17421.6    	34.28372
575.0000      	17391.3    	34.44636
576.0000      	17361.1    	34.79858
577.0000      	17331    	35.19499
578.0000      	17301    	35.60548
579.0000      	17271.2    	36.10011
580.0000      	17241.4    	36.68665
581.0000      	17211.7    	36.98206
582.0000      	17182.1    	37.59625
583.0000      	17152.7    	38.12782
584.0000      	17123.3    	38.66036
585.0000      	17094    	39.28775
586.0000      	17064.8    	39.88210
587.0000      	17035.8    	40.15955
588.0000      	17006.8    	40.63140
589.0000      	16977.9    	41.14192
590.0000      	16949.2    	41.63014
591.0000      	16920.5    	41.97021
592.0000      	16891.9    	42.21033
593.0000      	16863.4    	42.35463
594.0000      	16835    	42.58766
595.0000      	16806.7    	42.87199
596.0000      	16778.5    	43.09610
597.0000      	16750.4    	43.32437
598.0000      	16722.4    	43.43402
599.0000      	16694.5    	43.41644
600.0000      	16666.7    	43.44273
601.0000      	16638.9    	43.53176
602.0000      	16611.3    	43.58379
603.0000      	16583.7    	43.41209
604.0000      	16556.3    	43.30229
605.0000      	16528.9    	43.16658
606.0000      	16501.7    	43.27367
607.0000      	16474.5    	43.32492
608.0000      	16447.4    	43.29709
609.0000      	16420.4    	43.32951
610.0000      	16393.4    	43.34415
611.0000      	16366.6    	43.44305
612.0000      	16339.9    	43.47009
613.0000      	16313.2    	43.37123
614.0000      	16286.6    	43.29235
615.0000      	16260.2    	43.20097
616.0000      	16233.8    	43.14073
617.0000      	16207.5    	43.14144
618.0000      	16181.2    	43.23557
619.0000      	16155.1    	43.28043
620.0000      	16129    	43.19582
621.0000      	16103.1    	43.14905
622.0000      	16077.2    	43.08965
623.0000      	16051.4    	43.23087
624.0000      	16025.6    	43.33147
625.0000      	16000    	43.40474
626.0000      	15974.4    	43.41342
627.0000      	15949    	43.50927
628.0000      	15923.6    	43.50397
629.0000      	15898.3    	43.46494
630.0000      	15873    	43.39357
631.0000      	15847.9    	43.46654
632.0000      	15822.8    	43.46085
633.0000      	15797.8    	43.44704
634.0000      	15772.9    	43.52763
635.0000      	15748    	43.76155
636.0000      	15723.3    	43.85788
637.0000      	15698.6    	43.93749
638.0000      	15674    	43.98549
639.0000      	15649.5    	44.10654
640.0000      	15625    	44.21211
641.0000      	15600.6    	44.36137
642.0000      	15576.3    	44.47923
643.0000      	15552.1    	44.74372
644.0000      	15528    	44.97862
645.0000      	15503.9    	45.18843
646.0000      	15479.9    	45.38966
647.0000      	15456    	45.50911
648.0000      	15432.1    	45.68750
649.0000      	15408.3    	45.89063
650.0000      	15384.6    	46.13600
651.0000      	15361    	46.33480
652.0000      	15337.4    	46.62956
653.0000      	15313.9    	46.72797
654.0000      	15290.5    	46.99910
655.0000      	15267.2    	47.35515
656.0000      	15243.9    	47.64553
657.0000      	15220.7    	47.81623
658.0000      	15197.6    	47.91700
659.0000      	15174.5    	48.14838
660.0000      	15151.5    	48.46525
661.0000      	15128.6    	48.58669
662.0000      	15105.7    	48.70990
663.0000      	15083    	48.77289
664.0000      	15060.2    	48.98297
665.0000      	15037.6    	49.20013
666.0000      	15015    	49.38466
667.0000      	14992.5    	49.39970
668.0000      	14970.1    	49.40388
669.0000      	14947.7    	49.37999
670.0000      	14925.4    	49.42076
671.0000      	14903.1    	49.39231
672.0000      	14881    	49.24675
673.0000      	14858.8    	49.20234
674.0000      	14836.8    	49.15253
675.0000      	14814.8    	49.13004
676.0000      	14792.9    	49.11971
677.0000      	14771    	49.25186
678.0000      	14749.3    	49.24997
679.0000      	14727.5    	49.19199
680.0000      	14705.9    	49.03855
681.0000      	14684.3    	48.99080
682.0000      	14662.8    	48.94603
683.0000      	14641.3    	48.82306
684.0000      	14619.9    	48.66262
685.0000      	14598.5    	48.46463
686.0000      	14577.3    	48.30525
687.0000      	14556    	48.07140
688.0000      	14534.9    	48.00299
689.0000      	14513.8    	47.86909
690.0000      	14492.8    	47.79826
691.0000      	14471.8    	47.69975
692.0000      	14450.9    	47.56874
693.0000      	14430    	47.51984
694.0000      	14409.2    	47.45134
695.0000      	14388.5    	47.41901
696.0000      	14367.8    	47.32967
697.0000      	14347.2    	47.18098
698.0000      	14326.6    	47.11602
699.0000      	14306.2    	47.00832
700.0000      	14285.7    	47.04601
701.0000      	14265.3    	46.94864
702.0000      	14245    	46.75905
703.0000      	14224.8    	46.59174
704.0000      	14204.5    	46.31976
705.0000      	14184.4    	46.12240
706.0000      	14164.3    	46.00679
707.0000      	14144.3    	45.88891
708.0000      	14124.3    	45.89494
709.0000      	14104.4    	45.77926
710.0000      	14084.5    	45.86618
711.0000      	14064.7    	45.76675
712.0000      	14044.9    	45.54875
713.0000      	14025.2    	45.45978
714.0000      	14005.6    	45.32097
715.0000      	13986    	45.33525
716.0000      	13966.5    	45.41918
717.0000      	13947    	45.70706
718.0000      	13927.6    	45.82080
719.0000      	13908.2    	45.94398
720.0000      	13888.9    	45.99571
721.0000      	13869.6    	46.17855
722.0000      	13850.4    	46.46329
723.0000      	13831.3    	46.56376
724.0000      	13812.2    	46.86614
725.0000      	13793.1    	47.23287
726.0000      	13774.1    	47.64845
727.0000      	13755.2    	47.75342
728.0000      	13736.3    	47.78001
729.0000      	13717.4    	47.93997
730.0000      	13698.6    	48.31805
731.0000      	13679.9    	48.52501
732.0000      	13661.2    	48.59231
733.0000      	13642.6    	48.63778
734.0000      	13624    	49.08723
735.0000      	13605.4    	49.67027
736.0000      	13587    	50.20065
737.0000      	13568.5    	50.39160
738.0000      	13550.1    	50.90140
739.0000      	13531.8    	51.40254
740.0000      	13513.5    	51.86495
741.0000      	13495.3    	52.38208
742.0000      	13477.1    	52.65079
743.0000      	13459    	53.60305
744.0000      	13440.9    	54.32912
745.0000      	13422.8    	54.86821
746.0000      	13404.8    	55.25327
747.0000      	13386.9    	55.52119
748.0000      	13369    	56.16656
749.0000      	13351.1    	56.88485
750.0000      	13333.3    	57.86355
751.0000      	13315.6    	58.24020
752.0000      	13297.9    	58.77047
753.0000      	13280.2    	59.42929
754.0000      	13262.6    	60.28570
755.0000      	13245    	61.02890
756.0000      	13227.5    	61.38528
757.0000      	13210    	61.85513
758.0000      	13192.6    	62.43277
759.0000      	13175.2    	63.27753
760.0000      	13157.9    	64.09850
761.0000      	13140.6    	64.51635
762.0000      	13123.4    	64.97236
763.0000      	13106.2    	65.35535
764.0000      	13089    	65.65691
765.0000      	13071.9    	65.83275
766.0000      	13054.8    	66.04913
767.0000      	13037.8    	66.16219
768.0000      	13020.8    	66.33217
769.0000      	13003.9    	66.67965
770.0000      	12987    	66.78552
771.0000      	12970.2    	67.06929
772.0000      	12953.4    	67.21330
773.0000      	12936.6    	67.57813
774.0000      	12919.9    	67.61220
775.0000      	12903.2    	67.70792
776.0000      	12886.6    	67.69468
777.0000      	12870    	67.76644
778.0000      	12853.5    	67.54176
779.0000      	12837    	67.66714
780.0000      	12820.5    	67.64988
781.0000      	12804.1    	67.56377
782.0000      	12787.7    	67.88361
783.0000      	12771.4    	68.38354
784.0000      	12755.1    	68.55447
785.0000      	12738.9    	68.52352
786.0000      	12722.6    	68.40670
787.0000      	12706.5    	68.27869
788.0000      	12690.4    	68.52427
789.0000      	12674.3    	68.41618
790.0000      	12658.2    	68.46234
791.0000      	12642.2    	68.01550
792.0000      	12626.3    	67.67193
793.0000      	12610.3    	67.51543
794.0000      	12594.5    	67.64205
795.0000      	12578.6    	68.14998
796.0000      	12562.8    	68.50369
797.0000      	12547.1    	68.66711
798.0000      	12531.3    	68.23105
799.0000      	12515.6    	67.80800
800.0000      	12500    	67.94231