File: data/Reflectance_measurements/Reflectance_2019_material/63_white/63_w_2.txt
Unit Serial No : 240-IM0P2424-EU
Integration Time : 10 ms
Time Average: 10
Binning Average: 2
FFT Smoothing: 0%
Project Name : RPS900-R
Sample Name :  SM240-IMOP2424-EU
Measurement No : 1
Measurement Time : 06/03/2019   14:59:56

Wavelength(nm)	Wavenumber(1/cm)	Transmittance(%)
300.0000      	33333.3    	11.15329
301.0000      	33222.6    	9.42376
302.0000      	33112.6    	10.14501
303.0000      	33003.3    	10.21246
304.0000      	32894.7    	9.98397
305.0000      	32786.9    	10.44909
306.0000      	32679.7    	10.17155
307.0000      	32573.3    	9.62173
308.0000      	32467.5    	9.33745
309.0000      	32362.5    	9.55056
310.0000      	32258.1    	9.13622
311.0000      	32154.3    	9.36199
312.0000      	32051.3    	8.78726
313.0000      	31948.9    	8.91806
314.0000      	31847.1    	8.57956
315.0000      	31746    	8.49610
316.0000      	31645.6    	8.19871
317.0000      	31545.7    	8.24031
318.0000      	31446.5    	8.25286
319.0000      	31348    	7.38836
320.0000      	31250    	7.15067
321.0000      	31152.6    	7.33693
322.0000      	31055.9    	7.67369
323.0000      	30959.8    	7.59869
324.0000      	30864.2    	7.39200
325.0000      	30769.2    	6.65192
326.0000      	30674.8    	6.76285
327.0000      	30581    	6.93987
328.0000      	30487.8    	6.94778
329.0000      	30395.1    	7.04109
330.0000      	30303    	6.76601
331.0000      	30211.5    	6.53610
332.0000      	30120.5    	6.56460
333.0000      	30030    	6.66517
334.0000      	29940.1    	6.74500
335.0000      	29850.7    	6.63561
336.0000      	29761.9    	6.55392
337.0000      	29673.6    	6.41163
338.0000      	29585.8    	6.40743
339.0000      	29498.5    	6.32547
340.0000      	29411.8    	6.33638
341.0000      	29325.5    	6.35586
342.0000      	29239.8    	6.41810
343.0000      	29154.5    	6.37730
344.0000      	29069.8    	6.04131
345.0000      	28985.5    	5.86425
346.0000      	28901.7    	5.82758
347.0000      	28818.4    	5.89191
348.0000      	28735.6    	6.19855
349.0000      	28653.3    	6.38264
350.0000      	28571.4    	6.52276
351.0000      	28490    	6.46690
352.0000      	28409.1    	6.33518
353.0000      	28328.6    	6.36201
354.0000      	28248.6    	6.32889
355.0000      	28169    	6.08348
356.0000      	28089.9    	6.38218
357.0000      	28011.2    	6.40247
358.0000      	27933    	6.43982
359.0000      	27855.2    	6.47381
360.0000      	27777.8    	6.63758
361.0000      	27700.8    	6.65140
362.0000      	27624.3    	6.72624
363.0000      	27548.2    	6.95304
364.0000      	27472.5    	6.85972
365.0000      	27397.3    	6.79258
366.0000      	27322.4    	6.78614
367.0000      	27248    	6.73159
368.0000      	27173.9    	6.74591
369.0000      	27100.3    	6.97921
370.0000      	27027    	7.08767
371.0000      	26954.2    	7.09384
372.0000      	26881.7    	7.14624
373.0000      	26809.7    	7.13237
374.0000      	26738    	7.21724
375.0000      	26666.7    	7.28925
376.0000      	26595.7    	7.61511
377.0000      	26525.2    	7.66278
378.0000      	26455    	7.69464
379.0000      	26385.2    	7.69935
380.0000      	26315.8    	7.84320
381.0000      	26246.7    	8.05879
382.0000      	26178    	8.15879
383.0000      	26109.7    	8.30030
384.0000      	26041.7    	8.38787
385.0000      	25974    	8.57194
386.0000      	25906.7    	8.60513
387.0000      	25839.8    	8.74527
388.0000      	25773.2    	8.76534
389.0000      	25706.9    	9.04855
390.0000      	25641    	9.32203
391.0000      	25575.4    	9.35363
392.0000      	25510.2    	9.41623
393.0000      	25445.3    	9.63888
394.0000      	25380.7    	9.82149
395.0000      	25316.5    	9.93265
396.0000      	25252.5    	10.13579
397.0000      	25188.9    	10.38224
398.0000      	25125.6    	10.65848
399.0000      	25062.7    	10.83954
400.0000      	25000    	11.07883
401.0000      	24937.7    	11.17963
402.0000      	24875.6    	11.26160
403.0000      	24813.9    	11.38429
404.0000      	24752.5    	11.61626
405.0000      	24691.4    	11.94114
406.0000      	24630.5    	12.03231
407.0000      	24570    	12.28462
408.0000      	24509.8    	12.57530
409.0000      	24449.9    	12.87054
410.0000      	24390.2    	13.08389
411.0000      	24330.9    	13.31089
412.0000      	24271.8    	13.40068
413.0000      	24213.1    	13.64913
414.0000      	24154.6    	13.85718
415.0000      	24096.4    	13.92752
416.0000      	24038.5    	13.92381
417.0000      	23980.8    	13.97673
418.0000      	23923.4    	14.05914
419.0000      	23866.3    	14.21954
420.0000      	23809.5    	14.38061
421.0000      	23753    	14.48080
422.0000      	23696.7    	14.58262
423.0000      	23640.7    	14.71056
424.0000      	23584.9    	14.82903
425.0000      	23529.4    	14.80259
426.0000      	23474.2    	14.87885
427.0000      	23419.2    	15.00360
428.0000      	23364.5    	15.05096
429.0000      	23310    	15.07537
430.0000      	23255.8    	15.11622
431.0000      	23201.9    	15.22591
432.0000      	23148.1    	15.36596
433.0000      	23094.7    	15.50502
434.0000      	23041.5    	15.63037
435.0000      	22988.5    	15.76460
436.0000      	22935.8    	15.91670
437.0000      	22883.3    	16.01263
438.0000      	22831.1    	16.01431
439.0000      	22779    	16.08496
440.0000      	22727.3    	16.27873
441.0000      	22675.7    	16.38204
442.0000      	22624.4    	16.32599
443.0000      	22573.4    	16.40705
444.0000      	22522.5    	16.53102
445.0000      	22471.9    	16.68595
446.0000      	22421.5    	16.68077
447.0000      	22371.4    	16.71002
448.0000      	22321.4    	16.63395
449.0000      	22271.7    	16.69639
450.0000      	22222.2    	16.81187
451.0000      	22172.9    	16.83715
452.0000      	22123.9    	16.95229
453.0000      	22075.1    	17.02883
454.0000      	22026.4    	17.17033
455.0000      	21978    	17.20626
456.0000      	21929.8    	17.33857
457.0000      	21881.8    	17.47982
458.0000      	21834.1    	17.55354
459.0000      	21786.5    	17.73996
460.0000      	21739.1    	17.86673
461.0000      	21692    	17.95118
462.0000      	21645    	17.96111
463.0000      	21598.3    	18.06306
464.0000      	21551.7    	18.14163
465.0000      	21505.4    	18.33353
466.0000      	21459.2    	18.58116
467.0000      	21413.3    	18.71736
468.0000      	21367.5    	18.87631
469.0000      	21322    	19.06442
470.0000      	21276.6    	19.15075
471.0000      	21231.4    	19.25083
472.0000      	21186.4    	19.43648
473.0000      	21141.6    	19.69382
474.0000      	21097    	20.01204
475.0000      	21052.6    	20.23464
476.0000      	21008.4    	20.41623
477.0000      	20964.4    	20.61592
478.0000      	20920.5    	20.70998
479.0000      	20876.8    	20.88606
480.0000      	20833.3    	21.10033
481.0000      	20790    	21.35716
482.0000      	20746.9    	21.64583
483.0000      	20703.9    	21.91237
484.0000      	20661.2    	22.14494
485.0000      	20618.6    	22.24943
486.0000      	20576.1    	22.51445
487.0000      	20533.9    	22.71415
488.0000      	20491.8    	22.93879
489.0000      	20449.9    	23.22299
490.0000      	20408.2    	23.46029
491.0000      	20366.6    	23.72062
492.0000      	20325.2    	23.86683
493.0000      	20284    	24.15190
494.0000      	20242.9    	24.38038
495.0000      	20202    	24.56324
496.0000      	20161.3    	24.75537
497.0000      	20120.7    	24.91343
498.0000      	20080.3    	25.08518
499.0000      	20040.1    	25.18719
500.0000      	20000    	25.38521
501.0000      	19960.1    	25.51085
502.0000      	19920.3    	25.54622
503.0000      	19880.7    	25.54614
504.0000      	19841.3    	25.58184
505.0000      	19802    	25.60971
506.0000      	19762.8    	25.58614
507.0000      	19723.9    	25.44180
508.0000      	19685    	25.21348
509.0000      	19646.4    	24.98326
510.0000      	19607.8    	24.76947
511.0000      	19569.5    	24.52770
512.0000      	19531.2    	24.12563
513.0000      	19493.2    	23.91119
514.0000      	19455.3    	23.54882
515.0000      	19417.5    	23.18103
516.0000      	19379.8    	22.73969
517.0000      	19342.4    	22.22335
518.0000      	19305    	21.73429
519.0000      	19267.8    	21.45708
520.0000      	19230.8    	20.99593
521.0000      	19193.9    	20.44784
522.0000      	19157.1    	19.90122
523.0000      	19120.5    	19.37620
524.0000      	19084    	18.94334
525.0000      	19047.6    	18.46363
526.0000      	19011.4    	18.25119
527.0000      	18975.3    	17.86969
528.0000      	18939.4    	17.49720
529.0000      	18903.6    	17.19556
530.0000      	18867.9    	16.88414
531.0000      	18832.4    	16.62247
532.0000      	18797    	16.38740
533.0000      	18761.7    	16.29064
534.0000      	18726.6    	16.10861
535.0000      	18691.6    	15.96356
536.0000      	18656.7    	15.78964
537.0000      	18622    	15.59883
538.0000      	18587.4    	15.51167
539.0000      	18552.9    	15.49709
540.0000      	18518.5    	15.50724
541.0000      	18484.3    	15.47424
542.0000      	18450.2    	15.45197
543.0000      	18416.2    	15.45209
544.0000      	18382.4    	15.40466
545.0000      	18348.6    	15.38250
546.0000      	18315    	15.34602
547.0000      	18281.5    	15.37827
548.0000      	18248.2    	15.34089
549.0000      	18214.9    	15.19917
550.0000      	18181.8    	15.09916
551.0000      	18148.8    	15.02777
552.0000      	18115.9    	14.90925
553.0000      	18083.2    	14.70877
554.0000      	18050.5    	14.48099
555.0000      	18018    	14.20459
556.0000      	17985.6    	13.93355
557.0000      	17953.3    	13.68739
558.0000      	17921.1    	13.55606
559.0000      	17889.1    	13.29305
560.0000      	17857.1    	13.00283
561.0000      	17825.3    	12.71953
562.0000      	17793.6    	12.48964
563.0000      	17762    	12.31427
564.0000      	17730.5    	12.21179
565.0000      	17699.1    	12.00076
566.0000      	17667.8    	11.83963
567.0000      	17636.7    	11.75636
568.0000      	17605.6    	11.66414
569.0000      	17574.7    	11.66874
570.0000      	17543.9    	11.68063
571.0000      	17513.1    	11.68429
572.0000      	17482.5    	11.71226
573.0000      	17452    	11.80957
574.0000      	17421.6    	11.96549
575.0000      	17391.3    	12.05724
576.0000      	17361.1    	12.26265
577.0000      	17331    	12.53181
578.0000      	17301    	12.81579
579.0000      	17271.2    	13.12627
580.0000      	17241.4    	13.48625
581.0000      	17211.7    	13.69765
582.0000      	17182.1    	14.18090
583.0000      	17152.7    	14.55585
584.0000      	17123.3    	14.96385
585.0000      	17094    	15.40550
586.0000      	17064.8    	15.84386
587.0000      	17035.8    	16.05925
588.0000      	17006.8    	16.53349
589.0000      	16977.9    	16.94301
590.0000      	16949.2    	17.29224
591.0000      	16920.5    	17.64605
592.0000      	16891.9    	18.01666
593.0000      	16863.4    	18.17726
594.0000      	16835    	18.43747
595.0000      	16806.7    	18.61255
596.0000      	16778.5    	18.76741
597.0000      	16750.4    	18.93853
598.0000      	16722.4    	19.07576
599.0000      	16694.5    	19.08340
600.0000      	16666.7    	19.10974
601.0000      	16638.9    	19.13026
602.0000      	16611.3    	19.22499
603.0000      	16583.7    	19.26037
604.0000      	16556.3    	19.22230
605.0000      	16528.9    	19.18114
606.0000      	16501.7    	19.20528
607.0000      	16474.5    	19.17959
608.0000      	16447.4    	19.13872
609.0000      	16420.4    	19.20409
610.0000      	16393.4    	19.26153
611.0000      	16366.6    	19.35394
612.0000      	16339.9    	19.32899
613.0000      	16313.2    	19.27958
614.0000      	16286.6    	19.31127
615.0000      	16260.2    	19.35631
616.0000      	16233.8    	19.38337
617.0000      	16207.5    	19.33874
618.0000      	16181.2    	19.29510
619.0000      	16155.1    	19.32623
620.0000      	16129    	19.36671
621.0000      	16103.1    	19.38022
622.0000      	16077.2    	19.38498
623.0000      	16051.4    	19.40336
624.0000      	16025.6    	19.46832
625.0000      	16000    	19.50104
626.0000      	15974.4    	19.51834
627.0000      	15949    	19.50885
628.0000      	15923.6    	19.55665
629.0000      	15898.3    	19.63481
630.0000      	15873    	19.68596
631.0000      	15847.9    	19.75046
632.0000      	15822.8    	19.79219
633.0000      	15797.8    	19.81871
634.0000      	15772.9    	19.83297
635.0000      	15748    	19.89008
636.0000      	15723.3    	19.91882
637.0000      	15698.6    	19.95900
638.0000      	15674    	20.01792
639.0000      	15649.5    	20.10520
640.0000      	15625    	20.29778
641.0000      	15600.6    	20.45564
642.0000      	15576.3    	20.52323
643.0000      	15552.1    	20.63127
644.0000      	15528    	20.75966
645.0000      	15503.9    	20.92752
646.0000      	15479.9    	21.15894
647.0000      	15456    	21.22742
648.0000      	15432.1    	21.38166
649.0000      	15408.3    	21.49971
650.0000      	15384.6    	21.72164
651.0000      	15361    	21.90668
652.0000      	15337.4    	22.12337
653.0000      	15313.9    	22.24913
654.0000      	15290.5    	22.51638
655.0000      	15267.2    	22.74690
656.0000      	15243.9    	22.92153
657.0000      	15220.7    	23.10139
658.0000      	15197.6    	23.20876
659.0000      	15174.5    	23.42062
660.0000      	15151.5    	23.71123
661.0000      	15128.6    	23.90701
662.0000      	15105.7    	24.14692
663.0000      	15083    	24.25277
664.0000      	15060.2    	24.44750
665.0000      	15037.6    	24.62007
666.0000      	15015    	24.82443
667.0000      	14992.5    	24.91381
668.0000      	14970.1    	24.95922
669.0000      	14947.7    	25.04884
670.0000      	14925.4    	25.13205
671.0000      	14903.1    	25.20337
672.0000      	14881    	25.22370
673.0000      	14858.8    	25.22918
674.0000      	14836.8    	25.12183
675.0000      	14814.8    	25.10966
676.0000      	14792.9    	25.05859
677.0000      	14771    	25.06262
678.0000      	14749.3    	25.03234
679.0000      	14727.5    	24.98998
680.0000      	14705.9    	24.89663
681.0000      	14684.3    	24.81805
682.0000      	14662.8    	24.70367
683.0000      	14641.3    	24.56931
684.0000      	14619.9    	24.46311
685.0000      	14598.5    	24.34344
686.0000      	14577.3    	24.25067
687.0000      	14556    	24.07646
688.0000      	14534.9    	23.99587
689.0000      	14513.8    	23.78248
690.0000      	14492.8    	23.61014
691.0000      	14471.8    	23.53817
692.0000      	14450.9    	23.49282
693.0000      	14430    	23.55307
694.0000      	14409.2    	23.51166
695.0000      	14388.5    	23.46515
696.0000      	14367.8    	23.22044
697.0000      	14347.2    	23.12569
698.0000      	14326.6    	23.05946
699.0000      	14306.2    	22.77078
700.0000      	14285.7    	22.61284
701.0000      	14265.3    	22.54935
702.0000      	14245    	22.53461
703.0000      	14224.8    	22.43414
704.0000      	14204.5    	22.24888
705.0000      	14184.4    	22.17517
706.0000      	14164.3    	21.95098
707.0000      	14144.3    	21.79097
708.0000      	14124.3    	21.72781
709.0000      	14104.4    	21.59370
710.0000      	14084.5    	21.43599
711.0000      	14064.7    	21.42393
712.0000      	14044.9    	21.32341
713.0000      	14025.2    	21.33691
714.0000      	14005.6    	21.27598
715.0000      	13986    	21.38502
716.0000      	13966.5    	21.56927
717.0000      	13947    	21.79352
718.0000      	13927.6    	21.84025
719.0000      	13908.2    	21.91865
720.0000      	13888.9    	22.05264
721.0000      	13869.6    	22.30337
722.0000      	13850.4    	22.42476
723.0000      	13831.3    	22.52599
724.0000      	13812.2    	22.82258
725.0000      	13793.1    	23.19913
726.0000      	13774.1    	23.70965
727.0000      	13755.2    	23.94948
728.0000      	13736.3    	24.09251
729.0000      	13717.4    	24.32744
730.0000      	13698.6    	24.61529
731.0000      	13679.9    	24.92832
732.0000      	13661.2    	25.07719
733.0000      	13642.6    	25.46513
734.0000      	13624    	26.08218
735.0000      	13605.4    	26.77204
736.0000      	13587    	27.25552
737.0000      	13568.5    	27.53554
738.0000      	13550.1    	28.16290
739.0000      	13531.8    	28.66372
740.0000      	13513.5    	29.32441
741.0000      	13495.3    	30.33858
742.0000      	13477.1    	30.90603
743.0000      	13459    	32.07750
744.0000      	13440.9    	33.07524
745.0000      	13422.8    	34.11833
746.0000      	13404.8    	35.12430
747.0000      	13386.9    	35.66706
748.0000      	13369    	36.89837
749.0000      	13351.1    	38.25833
750.0000      	13333.3    	39.64528
751.0000      	13315.6    	40.27355
752.0000      	13297.9    	41.56000
753.0000      	13280.2    	43.25796
754.0000      	13262.6    	44.99667
755.0000      	13245    	46.69844
756.0000      	13227.5    	47.48895
757.0000      	13210    	49.32103
758.0000      	13192.6    	50.98781
759.0000      	13175.2    	52.86674
760.0000      	13157.9    	54.61615
761.0000      	13140.6    	55.55278
762.0000      	13123.4    	56.96538
763.0000      	13106.2    	58.37966
764.0000      	13089    	59.79749
765.0000      	13071.9    	60.51382
766.0000      	13054.8    	61.85768
767.0000      	13037.8    	62.89022
768.0000      	13020.8    	63.66624
769.0000      	13003.9    	64.46913
770.0000      	12987    	64.96810
771.0000      	12970.2    	66.12697
772.0000      	12953.4    	66.93073
773.0000      	12936.6    	67.60526
774.0000      	12919.9    	67.84007
775.0000      	12903.2    	68.40636
776.0000      	12886.6    	68.80168
777.0000      	12870    	69.54675
778.0000      	12853.5    	70.10136
779.0000      	12837    	70.44337
780.0000      	12820.5    	70.11847
781.0000      	12804.1    	69.85545
782.0000      	12787.7    	70.16140
783.0000      	12771.4    	70.94858
784.0000      	12755.1    	71.23643
785.0000      	12738.9    	71.91865
786.0000      	12722.6    	71.99649
787.0000      	12706.5    	71.65465
788.0000      	12690.4    	71.82650
789.0000      	12674.3    	72.06666
790.0000      	12658.2    	72.63441
791.0000      	12642.2    	72.40170
792.0000      	12626.3    	72.11758
793.0000      	12610.3    	71.93868
794.0000      	12594.5    	72.01811
795.0000      	12578.6    	72.56094
796.0000      	12562.8    	72.96991
797.0000      	12547.1    	73.15896
798.0000      	12531.3    	72.91231
799.0000      	12515.6    	72.89588
800.0000      	12500    	73.21370