File: data/Reflectance_measurements/Reflectance_2019_material/63_white/63_w_3.txt
Unit Serial No : 240-IM0P2424-EU
Integration Time : 10 ms
Time Average: 10
Binning Average: 2
FFT Smoothing: 0%
Project Name : RPS900-R
Sample Name :  SM240-IMOP2424-EU
Measurement No : 1
Measurement Time : 06/03/2019   15:00:20

Wavelength(nm)	Wavenumber(1/cm)	Transmittance(%)
300.0000      	33333.3    	13.34062
301.0000      	33222.6    	12.89546
302.0000      	33112.6    	11.51458
303.0000      	33003.3    	10.92638
304.0000      	32894.7    	10.76570
305.0000      	32786.9    	11.31199
306.0000      	32679.7    	11.11000
307.0000      	32573.3    	9.97245
308.0000      	32467.5    	9.35433
309.0000      	32362.5    	9.36724
310.0000      	32258.1    	9.12198
311.0000      	32154.3    	9.53771
312.0000      	32051.3    	9.06174
313.0000      	31948.9    	8.84700
314.0000      	31847.1    	8.23458
315.0000      	31746    	8.19300
316.0000      	31645.6    	8.78072
317.0000      	31545.7    	8.83603
318.0000      	31446.5    	8.77405
319.0000      	31348    	7.66429
320.0000      	31250    	7.24325
321.0000      	31152.6    	7.33028
322.0000      	31055.9    	7.88741
323.0000      	30959.8    	7.64790
324.0000      	30864.2    	7.52951
325.0000      	30769.2    	7.30971
326.0000      	30674.8    	7.11666
327.0000      	30581    	7.12730
328.0000      	30487.8    	6.86275
329.0000      	30395.1    	6.93579
330.0000      	30303    	6.56679
331.0000      	30211.5    	6.32597
332.0000      	30120.5    	6.78312
333.0000      	30030    	6.97743
334.0000      	29940.1    	7.39117
335.0000      	29850.7    	7.00014
336.0000      	29761.9    	6.31673
337.0000      	29673.6    	5.88914
338.0000      	29585.8    	6.27069
339.0000      	29498.5    	6.52846
340.0000      	29411.8    	6.21600
341.0000      	29325.5    	5.62982
342.0000      	29239.8    	5.83695
343.0000      	29154.5    	6.22845
344.0000      	29069.8    	6.41352
345.0000      	28985.5    	6.22396
346.0000      	28901.7    	6.04351
347.0000      	28818.4    	5.83936
348.0000      	28735.6    	6.06135
349.0000      	28653.3    	6.43315
350.0000      	28571.4    	6.73419
351.0000      	28490    	6.53179
352.0000      	28409.1    	6.09480
353.0000      	28328.6    	6.21091
354.0000      	28248.6    	6.44193
355.0000      	28169    	6.38561
356.0000      	28089.9    	6.57127
357.0000      	28011.2    	6.38926
358.0000      	27933    	6.43805
359.0000      	27855.2    	6.51257
360.0000      	27777.8    	6.66582
361.0000      	27700.8    	6.70170
362.0000      	27624.3    	6.75446
363.0000      	27548.2    	6.80514
364.0000      	27472.5    	6.69649
365.0000      	27397.3    	6.65308
366.0000      	27322.4    	6.85567
367.0000      	27248    	6.85976
368.0000      	27173.9    	6.80235
369.0000      	27100.3    	6.75861
370.0000      	27027    	6.97773
371.0000      	26954.2    	7.08096
372.0000      	26881.7    	7.33246
373.0000      	26809.7    	7.23234
374.0000      	26738    	7.18252
375.0000      	26666.7    	7.13734
376.0000      	26595.7    	7.32212
377.0000      	26525.2    	7.49235
378.0000      	26455    	7.73530
379.0000      	26385.2    	7.74852
380.0000      	26315.8    	7.97549
381.0000      	26246.7    	8.29067
382.0000      	26178    	8.42881
383.0000      	26109.7    	8.50268
384.0000      	26041.7    	8.33256
385.0000      	25974    	8.32582
386.0000      	25906.7    	8.34009
387.0000      	25839.8    	8.66183
388.0000      	25773.2    	8.78387
389.0000      	25706.9    	9.00455
390.0000      	25641    	9.18687
391.0000      	25575.4    	9.23930
392.0000      	25510.2    	9.35576
393.0000      	25445.3    	9.57553
394.0000      	25380.7    	9.81077
395.0000      	25316.5    	10.00026
396.0000      	25252.5    	10.19258
397.0000      	25188.9    	10.35129
398.0000      	25125.6    	10.53751
399.0000      	25062.7    	10.88268
400.0000      	25000    	11.22429
401.0000      	24937.7    	11.38238
402.0000      	24875.6    	11.46977
403.0000      	24813.9    	11.70685
404.0000      	24752.5    	11.86917
405.0000      	24691.4    	12.06247
406.0000      	24630.5    	12.24720
407.0000      	24570    	12.52536
408.0000      	24509.8    	12.75432
409.0000      	24449.9    	12.93480
410.0000      	24390.2    	13.19631
411.0000      	24330.9    	13.37326
412.0000      	24271.8    	13.46079
413.0000      	24213.1    	13.60661
414.0000      	24154.6    	13.70659
415.0000      	24096.4    	13.92076
416.0000      	24038.5    	14.02083
417.0000      	23980.8    	14.06565
418.0000      	23923.4    	13.97526
419.0000      	23866.3    	14.12819
420.0000      	23809.5    	14.35425
421.0000      	23753    	14.48045
422.0000      	23696.7    	14.63549
423.0000      	23640.7    	14.75660
424.0000      	23584.9    	14.78736
425.0000      	23529.4    	14.76281
426.0000      	23474.2    	14.91033
427.0000      	23419.2    	15.04357
428.0000      	23364.5    	15.14517
429.0000      	23310    	15.20442
430.0000      	23255.8    	15.22072
431.0000      	23201.9    	15.27781
432.0000      	23148.1    	15.39267
433.0000      	23094.7    	15.57697
434.0000      	23041.5    	15.65776
435.0000      	22988.5    	15.79680
436.0000      	22935.8    	15.94421
437.0000      	22883.3    	16.09531
438.0000      	22831.1    	16.13356
439.0000      	22779    	16.15430
440.0000      	22727.3    	16.23426
441.0000      	22675.7    	16.24076
442.0000      	22624.4    	16.28954
443.0000      	22573.4    	16.48140
444.0000      	22522.5    	16.63574
445.0000      	22471.9    	16.65778
446.0000      	22421.5    	16.65089
447.0000      	22371.4    	16.71580
448.0000      	22321.4    	16.67666
449.0000      	22271.7    	16.74044
450.0000      	22222.2    	16.76535
451.0000      	22172.9    	16.78997
452.0000      	22123.9    	16.83542
453.0000      	22075.1    	16.99224
454.0000      	22026.4    	17.28539
455.0000      	21978    	17.37676
456.0000      	21929.8    	17.47688
457.0000      	21881.8    	17.51098
458.0000      	21834.1    	17.53371
459.0000      	21786.5    	17.61650
460.0000      	21739.1    	17.77911
461.0000      	21692    	18.00151
462.0000      	21645    	18.06922
463.0000      	21598.3    	18.15654
464.0000      	21551.7    	18.16773
465.0000      	21505.4    	18.45102
466.0000      	21459.2    	18.64711
467.0000      	21413.3    	18.69410
468.0000      	21367.5    	18.79083
469.0000      	21322    	18.95195
470.0000      	21276.6    	19.08262
471.0000      	21231.4    	19.28506
472.0000      	21186.4    	19.57863
473.0000      	21141.6    	19.81606
474.0000      	21097    	20.02385
475.0000      	21052.6    	20.17577
476.0000      	21008.4    	20.38277
477.0000      	20964.4    	20.60138
478.0000      	20920.5    	20.69413
479.0000      	20876.8    	20.87530
480.0000      	20833.3    	21.11957
481.0000      	20790    	21.39748
482.0000      	20746.9    	21.63593
483.0000      	20703.9    	21.86180
484.0000      	20661.2    	22.10969
485.0000      	20618.6    	22.21895
486.0000      	20576.1    	22.44257
487.0000      	20533.9    	22.63686
488.0000      	20491.8    	22.87071
489.0000      	20449.9    	23.16075
490.0000      	20408.2    	23.45834
491.0000      	20366.6    	23.70139
492.0000      	20325.2    	23.85756
493.0000      	20284    	24.12127
494.0000      	20242.9    	24.36465
495.0000      	20202    	24.49296
496.0000      	20161.3    	24.69860
497.0000      	20120.7    	24.86160
498.0000      	20080.3    	25.04470
499.0000      	20040.1    	25.13837
500.0000      	20000    	25.26278
501.0000      	19960.1    	25.33713
502.0000      	19920.3    	25.37180
503.0000      	19880.7    	25.47250
504.0000      	19841.3    	25.55008
505.0000      	19802    	25.50422
506.0000      	19762.8    	25.44772
507.0000      	19723.9    	25.33899
508.0000      	19685    	25.20250
509.0000      	19646.4    	25.02456
510.0000      	19607.8    	24.78964
511.0000      	19569.5    	24.52031
512.0000      	19531.2    	24.14261
513.0000      	19493.2    	23.93335
514.0000      	19455.3    	23.53967
515.0000      	19417.5    	23.07103
516.0000      	19379.8    	22.55272
517.0000      	19342.4    	22.08874
518.0000      	19305    	21.67937
519.0000      	19267.8    	21.46964
520.0000      	19230.8    	20.98428
521.0000      	19193.9    	20.43761
522.0000      	19157.1    	19.89679
523.0000      	19120.5    	19.42525
524.0000      	19084    	18.95292
525.0000      	19047.6    	18.45491
526.0000      	19011.4    	18.21688
527.0000      	18975.3    	17.83863
528.0000      	18939.4    	17.48906
529.0000      	18903.6    	17.19962
530.0000      	18867.9    	16.92052
531.0000      	18832.4    	16.64139
532.0000      	18797    	16.36850
533.0000      	18761.7    	16.23526
534.0000      	18726.6    	16.05624
535.0000      	18691.6    	15.90764
536.0000      	18656.7    	15.78333
537.0000      	18622    	15.63287
538.0000      	18587.4    	15.51423
539.0000      	18552.9    	15.45293
540.0000      	18518.5    	15.44691
541.0000      	18484.3    	15.44838
542.0000      	18450.2    	15.42064
543.0000      	18416.2    	15.42199
544.0000      	18382.4    	15.38842
545.0000      	18348.6    	15.39021
546.0000      	18315    	15.34863
547.0000      	18281.5    	15.31770
548.0000      	18248.2    	15.25461
549.0000      	18214.9    	15.14234
550.0000      	18181.8    	15.07887
551.0000      	18148.8    	15.01879
552.0000      	18115.9    	14.86857
553.0000      	18083.2    	14.65800
554.0000      	18050.5    	14.48051
555.0000      	18018    	14.21436
556.0000      	17985.6    	13.95868
557.0000      	17953.3    	13.69633
558.0000      	17921.1    	13.58513
559.0000      	17889.1    	13.34066
560.0000      	17857.1    	13.07320
561.0000      	17825.3    	12.78894
562.0000      	17793.6    	12.53384
563.0000      	17762    	12.32363
564.0000      	17730.5    	12.24900
565.0000      	17699.1    	12.04523
566.0000      	17667.8    	11.86516
567.0000      	17636.7    	11.71684
568.0000      	17605.6    	11.64971
569.0000      	17574.7    	11.65118
570.0000      	17543.9    	11.64632
571.0000      	17513.1    	11.63442
572.0000      	17482.5    	11.67139
573.0000      	17452    	11.76052
574.0000      	17421.6    	11.92428
575.0000      	17391.3    	12.03794
576.0000      	17361.1    	12.29241
577.0000      	17331    	12.52887
578.0000      	17301    	12.78075
579.0000      	17271.2    	13.10648
580.0000      	17241.4    	13.51449
581.0000      	17211.7    	13.73111
582.0000      	17182.1    	14.17565
583.0000      	17152.7    	14.50450
584.0000      	17123.3    	14.92061
585.0000      	17094    	15.43536
586.0000      	17064.8    	15.90865
587.0000      	17035.8    	16.12969
588.0000      	17006.8    	16.49526
589.0000      	16977.9    	16.85306
590.0000      	16949.2    	17.25149
591.0000      	16920.5    	17.65261
592.0000      	16891.9    	18.02788
593.0000      	16863.4    	18.21634
594.0000      	16835    	18.47247
595.0000      	16806.7    	18.66784
596.0000      	16778.5    	18.78017
597.0000      	16750.4    	18.94626
598.0000      	16722.4    	19.02839
599.0000      	16694.5    	19.04586
600.0000      	16666.7    	19.09291
601.0000      	16638.9    	19.11304
602.0000      	16611.3    	19.14694
603.0000      	16583.7    	19.13686
604.0000      	16556.3    	19.13007
605.0000      	16528.9    	19.11653
606.0000      	16501.7    	19.21720
607.0000      	16474.5    	19.23214
608.0000      	16447.4    	19.19860
609.0000      	16420.4    	19.19772
610.0000      	16393.4    	19.19476
611.0000      	16366.6    	19.25599
612.0000      	16339.9    	19.26754
613.0000      	16313.2    	19.27932
614.0000      	16286.6    	19.29406
615.0000      	16260.2    	19.30117
616.0000      	16233.8    	19.26027
617.0000      	16207.5    	19.23325
618.0000      	16181.2    	19.23028
619.0000      	16155.1    	19.33696
620.0000      	16129    	19.41875
621.0000      	16103.1    	19.45935
622.0000      	16077.2    	19.39790
623.0000      	16051.4    	19.30446
624.0000      	16025.6    	19.26202
625.0000      	16000    	19.36367
626.0000      	15974.4    	19.44249
627.0000      	15949    	19.55527
628.0000      	15923.6    	19.62517
629.0000      	15898.3    	19.64847
630.0000      	15873    	19.58345
631.0000      	15847.9    	19.63317
632.0000      	15822.8    	19.67211
633.0000      	15797.8    	19.75952
634.0000      	15772.9    	19.83624
635.0000      	15748    	19.96955
636.0000      	15723.3    	19.92157
637.0000      	15698.6    	19.93136
638.0000      	15674    	19.97955
639.0000      	15649.5    	20.10528
640.0000      	15625    	20.22701
641.0000      	15600.6    	20.34990
642.0000      	15576.3    	20.41345
643.0000      	15552.1    	20.52816
644.0000      	15528    	20.68192
645.0000      	15503.9    	20.93785
646.0000      	15479.9    	21.20114
647.0000      	15456    	21.26697
648.0000      	15432.1    	21.33441
649.0000      	15408.3    	21.41952
650.0000      	15384.6    	21.65076
651.0000      	15361    	21.89274
652.0000      	15337.4    	22.13477
653.0000      	15313.9    	22.23963
654.0000      	15290.5    	22.41752
655.0000      	15267.2    	22.68938
656.0000      	15243.9    	22.91922
657.0000      	15220.7    	23.10999
658.0000      	15197.6    	23.19710
659.0000      	15174.5    	23.38720
660.0000      	15151.5    	23.67283
661.0000      	15128.6    	23.92936
662.0000      	15105.7    	24.25407
663.0000      	15083    	24.36818
664.0000      	15060.2    	24.51825
665.0000      	15037.6    	24.60959
666.0000      	15015    	24.66076
667.0000      	14992.5    	24.69426
668.0000      	14970.1    	24.76091
669.0000      	14947.7    	24.93574
670.0000      	14925.4    	25.00033
671.0000      	14903.1    	25.01871
672.0000      	14881    	25.01342
673.0000      	14858.8    	25.07077
674.0000      	14836.8    	25.05185
675.0000      	14814.8    	25.03840
676.0000      	14792.9    	24.93344
677.0000      	14771    	24.87170
678.0000      	14749.3    	24.85125
679.0000      	14727.5    	24.79171
680.0000      	14705.9    	24.73312
681.0000      	14684.3    	24.65003
682.0000      	14662.8    	24.59129
683.0000      	14641.3    	24.54045
684.0000      	14619.9    	24.54748
685.0000      	14598.5    	24.48317
686.0000      	14577.3    	24.34999
687.0000      	14556    	24.04431
688.0000      	14534.9    	23.96221
689.0000      	14513.8    	23.83774
690.0000      	14492.8    	23.86902
691.0000      	14471.8    	23.78360
692.0000      	14450.9    	23.59212
693.0000      	14430    	23.50640
694.0000      	14409.2    	23.34806
695.0000      	14388.5    	23.27875
696.0000      	14367.8    	23.20115
697.0000      	14347.2    	23.11108
698.0000      	14326.6    	23.07451
699.0000      	14306.2    	22.97540
700.0000      	14285.7    	22.86462
701.0000      	14265.3    	22.66069
702.0000      	14245    	22.45737
703.0000      	14224.8    	22.36154
704.0000      	14204.5    	22.27384
705.0000      	14184.4    	22.15314
706.0000      	14164.3    	21.80477
707.0000      	14144.3    	21.62122
708.0000      	14124.3    	21.62259
709.0000      	14104.4    	21.65599
710.0000      	14084.5    	21.61127
711.0000      	14064.7    	21.42249
712.0000      	14044.9    	21.28546
713.0000      	14025.2    	21.26623
714.0000      	14005.6    	21.33125
715.0000      	13986    	21.41440
716.0000      	13966.5    	21.54286
717.0000      	13947    	21.61304
718.0000      	13927.6    	21.65292
719.0000      	13908.2    	21.75768
720.0000      	13888.9    	21.99974
721.0000      	13869.6    	22.24532
722.0000      	13850.4    	22.42679
723.0000      	13831.3    	22.55578
724.0000      	13812.2    	22.88584
725.0000      	13793.1    	23.13414
726.0000      	13774.1    	23.57875
727.0000      	13755.2    	23.81522
728.0000      	13736.3    	23.94235
729.0000      	13717.4    	24.21362
730.0000      	13698.6    	24.56051
731.0000      	13679.9    	24.90887
732.0000      	13661.2    	25.13058
733.0000      	13642.6    	25.63871
734.0000      	13624    	26.20983
735.0000      	13605.4    	26.70606
736.0000      	13587    	27.18755
737.0000      	13568.5    	27.46646
738.0000      	13550.1    	28.26566
739.0000      	13531.8    	28.98333
740.0000      	13513.5    	29.84671
741.0000      	13495.3    	30.43630
742.0000      	13477.1    	30.81367
743.0000      	13459    	31.62750
744.0000      	13440.9    	32.62150
745.0000      	13422.8    	33.78632
746.0000      	13404.8    	34.89846
747.0000      	13386.9    	35.51962
748.0000      	13369    	36.67387
749.0000      	13351.1    	37.82454
750.0000      	13333.3    	39.33164
751.0000      	13315.6    	40.08746
752.0000      	13297.9    	41.55442
753.0000      	13280.2    	43.07611
754.0000      	13262.6    	44.63589
755.0000      	13245    	46.51129
756.0000      	13227.5    	47.34003
757.0000      	13210    	49.26427
758.0000      	13192.6    	50.81863
759.0000      	13175.2    	52.50737
760.0000      	13157.9    	54.23885
761.0000      	13140.6    	55.18718
762.0000      	13123.4    	56.75602
763.0000      	13106.2    	58.16769
764.0000      	13089    	59.60754
765.0000      	13071.9    	60.37521
766.0000      	13054.8    	61.64687
767.0000      	13037.8    	62.72421
768.0000      	13020.8    	63.68535
769.0000      	13003.9    	64.64687
770.0000      	12987    	65.12849
771.0000      	12970.2    	65.96622
772.0000      	12953.4    	66.58590
773.0000      	12936.6    	67.15125
774.0000      	12919.9    	67.63209
775.0000      	12903.2    	68.44647
776.0000      	12886.6    	68.95325
777.0000      	12870    	69.09914
778.0000      	12853.5    	69.41068
779.0000      	12837    	69.70316
780.0000      	12820.5    	70.11074
781.0000      	12804.1    	70.45917
782.0000      	12787.7    	70.55563
783.0000      	12771.4    	70.74570
784.0000      	12755.1    	70.82501
785.0000      	12738.9    	71.45769
786.0000      	12722.6    	71.90629
787.0000      	12706.5    	71.69366
788.0000      	12690.4    	71.93092
789.0000      	12674.3    	71.75341
790.0000      	12658.2    	72.01820
791.0000      	12642.2    	71.95947
792.0000      	12626.3    	72.53712
793.0000      	12610.3    	72.77817
794.0000      	12594.5    	73.09878
795.0000      	12578.6    	73.12991
796.0000      	12562.8    	72.98700
797.0000      	12547.1    	73.12933
798.0000      	12531.3    	72.74170
799.0000      	12515.6    	72.65558
800.0000      	12500    	73.07752