File: data/Reflectance_measurements/Reflectance_2019_material/63_white/63_w_1 .txt
Unit Serial No : 240-IM0P2424-EU
Integration Time : 10 ms
Time Average: 10
Binning Average: 2
FFT Smoothing: 0%
Project Name : RPS900-R
Sample Name :  SM240-IMOP2424-EU
Measurement No : 1
Measurement Time : 06/03/2019   14:59:43

Wavelength(nm)	Wavenumber(1/cm)	Transmittance(%)
300.0000      	33333.3    	12.89672
301.0000      	33222.6    	11.83274
302.0000      	33112.6    	10.97815
303.0000      	33003.3    	9.67607
304.0000      	32894.7    	8.54259
305.0000      	32786.9    	9.26828
306.0000      	32679.7    	9.80382
307.0000      	32573.3    	9.46639
308.0000      	32467.5    	9.48632
309.0000      	32362.5    	9.79746
310.0000      	32258.1    	9.64315
311.0000      	32154.3    	9.15788
312.0000      	32051.3    	8.39036
313.0000      	31948.9    	8.94300
314.0000      	31847.1    	8.96447
315.0000      	31746    	8.48556
316.0000      	31645.6    	8.26063
317.0000      	31545.7    	8.68146
318.0000      	31446.5    	8.76144
319.0000      	31348    	7.59835
320.0000      	31250    	7.38213
321.0000      	31152.6    	7.58334
322.0000      	31055.9    	7.66364
323.0000      	30959.8    	7.10130
324.0000      	30864.2    	6.77878
325.0000      	30769.2    	6.54464
326.0000      	30674.8    	6.82371
327.0000      	30581    	7.24854
328.0000      	30487.8    	7.10084
329.0000      	30395.1    	6.89323
330.0000      	30303    	6.49291
331.0000      	30211.5    	6.55733
332.0000      	30120.5    	6.76583
333.0000      	30030    	6.76334
334.0000      	29940.1    	6.70519
335.0000      	29850.7    	6.42335
336.0000      	29761.9    	6.25130
337.0000      	29673.6    	6.20595
338.0000      	29585.8    	6.62153
339.0000      	29498.5    	6.69062
340.0000      	29411.8    	6.26994
341.0000      	29325.5    	6.13140
342.0000      	29239.8    	6.25129
343.0000      	29154.5    	6.56694
344.0000      	29069.8    	6.46315
345.0000      	28985.5    	6.20633
346.0000      	28901.7    	5.95743
347.0000      	28818.4    	5.77610
348.0000      	28735.6    	5.76303
349.0000      	28653.3    	5.94491
350.0000      	28571.4    	6.17571
351.0000      	28490    	6.24111
352.0000      	28409.1    	6.16943
353.0000      	28328.6    	6.22230
354.0000      	28248.6    	6.45831
355.0000      	28169    	6.35980
356.0000      	28089.9    	6.43498
357.0000      	28011.2    	6.29503
358.0000      	27933    	6.30484
359.0000      	27855.2    	6.40531
360.0000      	27777.8    	6.31287
361.0000      	27700.8    	6.41114
362.0000      	27624.3    	6.50489
363.0000      	27548.2    	6.70502
364.0000      	27472.5    	6.73055
365.0000      	27397.3    	6.78272
366.0000      	27322.4    	6.82450
367.0000      	27248    	6.79256
368.0000      	27173.9    	6.82052
369.0000      	27100.3    	7.02848
370.0000      	27027    	7.12195
371.0000      	26954.2    	7.09875
372.0000      	26881.7    	7.12572
373.0000      	26809.7    	7.19289
374.0000      	26738    	7.20878
375.0000      	26666.7    	7.34898
376.0000      	26595.7    	7.51962
377.0000      	26525.2    	7.65057
378.0000      	26455    	7.69436
379.0000      	26385.2    	7.83153
380.0000      	26315.8    	7.97337
381.0000      	26246.7    	8.10047
382.0000      	26178    	8.15802
383.0000      	26109.7    	8.30920
384.0000      	26041.7    	8.33932
385.0000      	25974    	8.47952
386.0000      	25906.7    	8.50791
387.0000      	25839.8    	8.64302
388.0000      	25773.2    	8.67079
389.0000      	25706.9    	8.86508
390.0000      	25641    	9.17629
391.0000      	25575.4    	9.21258
392.0000      	25510.2    	9.33260
393.0000      	25445.3    	9.43306
394.0000      	25380.7    	9.69151
395.0000      	25316.5    	9.91912
396.0000      	25252.5    	10.15626
397.0000      	25188.9    	10.29503
398.0000      	25125.6    	10.54356
399.0000      	25062.7    	10.83558
400.0000      	25000    	11.00017
401.0000      	24937.7    	11.19494
402.0000      	24875.6    	11.28509
403.0000      	24813.9    	11.51327
404.0000      	24752.5    	11.69557
405.0000      	24691.4    	11.99511
406.0000      	24630.5    	12.15792
407.0000      	24570    	12.47659
408.0000      	24509.8    	12.68919
409.0000      	24449.9    	12.92244
410.0000      	24390.2    	13.11449
411.0000      	24330.9    	13.34980
412.0000      	24271.8    	13.45151
413.0000      	24213.1    	13.63286
414.0000      	24154.6    	13.74635
415.0000      	24096.4    	13.96134
416.0000      	24038.5    	14.11169
417.0000      	23980.8    	14.08693
418.0000      	23923.4    	13.96239
419.0000      	23866.3    	14.10539
420.0000      	23809.5    	14.29771
421.0000      	23753    	14.42327
422.0000      	23696.7    	14.55627
423.0000      	23640.7    	14.72155
424.0000      	23584.9    	14.89570
425.0000      	23529.4    	14.87610
426.0000      	23474.2    	14.91068
427.0000      	23419.2    	14.97404
428.0000      	23364.5    	15.08141
429.0000      	23310    	15.10633
430.0000      	23255.8    	15.17305
431.0000      	23201.9    	15.36774
432.0000      	23148.1    	15.59278
433.0000      	23094.7    	15.66025
434.0000      	23041.5    	15.63563
435.0000      	22988.5    	15.77418
436.0000      	22935.8    	16.00263
437.0000      	22883.3    	16.15942
438.0000      	22831.1    	16.17326
439.0000      	22779    	16.29491
440.0000      	22727.3    	16.47114
441.0000      	22675.7    	16.42489
442.0000      	22624.4    	16.34113
443.0000      	22573.4    	16.47160
444.0000      	22522.5    	16.72751
445.0000      	22471.9    	16.66399
446.0000      	22421.5    	16.64414
447.0000      	22371.4    	16.71933
448.0000      	22321.4    	16.64544
449.0000      	22271.7    	16.65379
450.0000      	22222.2    	16.71450
451.0000      	22172.9    	16.79604
452.0000      	22123.9    	16.84725
453.0000      	22075.1    	16.98739
454.0000      	22026.4    	17.19377
455.0000      	21978    	17.24314
456.0000      	21929.8    	17.31558
457.0000      	21881.8    	17.39378
458.0000      	21834.1    	17.55600
459.0000      	21786.5    	17.72698
460.0000      	21739.1    	17.85831
461.0000      	21692    	17.92834
462.0000      	21645    	17.97475
463.0000      	21598.3    	18.07689
464.0000      	21551.7    	18.18016
465.0000      	21505.4    	18.42090
466.0000      	21459.2    	18.62549
467.0000      	21413.3    	18.70667
468.0000      	21367.5    	18.82482
469.0000      	21322    	19.04274
470.0000      	21276.6    	19.15855
471.0000      	21231.4    	19.30443
472.0000      	21186.4    	19.48346
473.0000      	21141.6    	19.65065
474.0000      	21097    	19.89994
475.0000      	21052.6    	20.10290
476.0000      	21008.4    	20.28447
477.0000      	20964.4    	20.47206
478.0000      	20920.5    	20.60519
479.0000      	20876.8    	20.87638
480.0000      	20833.3    	21.12696
481.0000      	20790    	21.34606
482.0000      	20746.9    	21.61562
483.0000      	20703.9    	21.88158
484.0000      	20661.2    	22.10747
485.0000      	20618.6    	22.20542
486.0000      	20576.1    	22.39161
487.0000      	20533.9    	22.59601
488.0000      	20491.8    	22.84329
489.0000      	20449.9    	23.10319
490.0000      	20408.2    	23.40224
491.0000      	20366.6    	23.68212
492.0000      	20325.2    	23.84573
493.0000      	20284    	24.07187
494.0000      	20242.9    	24.31392
495.0000      	20202    	24.51278
496.0000      	20161.3    	24.69184
497.0000      	20120.7    	24.84684
498.0000      	20080.3    	25.06613
499.0000      	20040.1    	25.18736
500.0000      	20000    	25.34586
501.0000      	19960.1    	25.41901
502.0000      	19920.3    	25.47882
503.0000      	19880.7    	25.53311
504.0000      	19841.3    	25.57809
505.0000      	19802    	25.56797
506.0000      	19762.8    	25.51957
507.0000      	19723.9    	25.36660
508.0000      	19685    	25.20452
509.0000      	19646.4    	25.05799
510.0000      	19607.8    	24.86570
511.0000      	19569.5    	24.60634
512.0000      	19531.2    	24.24404
513.0000      	19493.2    	24.01957
514.0000      	19455.3    	23.58112
515.0000      	19417.5    	23.10561
516.0000      	19379.8    	22.62745
517.0000      	19342.4    	22.19016
518.0000      	19305    	21.74667
519.0000      	19267.8    	21.47249
520.0000      	19230.8    	20.92621
521.0000      	19193.9    	20.40081
522.0000      	19157.1    	19.89987
523.0000      	19120.5    	19.35861
524.0000      	19084    	18.87463
525.0000      	19047.6    	18.45569
526.0000      	19011.4    	18.24315
527.0000      	18975.3    	17.81274
528.0000      	18939.4    	17.41023
529.0000      	18903.6    	17.13400
530.0000      	18867.9    	16.86722
531.0000      	18832.4    	16.59075
532.0000      	18797    	16.30955
533.0000      	18761.7    	16.18621
534.0000      	18726.6    	15.99350
535.0000      	18691.6    	15.86945
536.0000      	18656.7    	15.71644
537.0000      	18622    	15.57012
538.0000      	18587.4    	15.47875
539.0000      	18552.9    	15.46170
540.0000      	18518.5    	15.46630
541.0000      	18484.3    	15.44552
542.0000      	18450.2    	15.38898
543.0000      	18416.2    	15.37390
544.0000      	18382.4    	15.40234
545.0000      	18348.6    	15.42281
546.0000      	18315    	15.41587
547.0000      	18281.5    	15.37476
548.0000      	18248.2    	15.31307
549.0000      	18214.9    	15.18661
550.0000      	18181.8    	15.08242
551.0000      	18148.8    	15.00243
552.0000      	18115.9    	14.82222
553.0000      	18083.2    	14.64797
554.0000      	18050.5    	14.42841
555.0000      	18018    	14.19002
556.0000      	17985.6    	13.94813
557.0000      	17953.3    	13.68748
558.0000      	17921.1    	13.56262
559.0000      	17889.1    	13.25924
560.0000      	17857.1    	12.98113
561.0000      	17825.3    	12.73587
562.0000      	17793.6    	12.50215
563.0000      	17762    	12.28311
564.0000      	17730.5    	12.18733
565.0000      	17699.1    	12.01813
566.0000      	17667.8    	11.87793
567.0000      	17636.7    	11.70131
568.0000      	17605.6    	11.62115
569.0000      	17574.7    	11.60987
570.0000      	17543.9    	11.64120
571.0000      	17513.1    	11.61398
572.0000      	17482.5    	11.67124
573.0000      	17452    	11.80713
574.0000      	17421.6    	11.93889
575.0000      	17391.3    	12.02228
576.0000      	17361.1    	12.22669
577.0000      	17331    	12.48841
578.0000      	17301    	12.75728
579.0000      	17271.2    	13.06061
580.0000      	17241.4    	13.43584
581.0000      	17211.7    	13.65037
582.0000      	17182.1    	14.11964
583.0000      	17152.7    	14.50795
584.0000      	17123.3    	14.94531
585.0000      	17094    	15.42544
586.0000      	17064.8    	15.87164
587.0000      	17035.8    	16.09535
588.0000      	17006.8    	16.47804
589.0000      	16977.9    	16.87711
590.0000      	16949.2    	17.33048
591.0000      	16920.5    	17.73061
592.0000      	16891.9    	18.04340
593.0000      	16863.4    	18.15660
594.0000      	16835    	18.34530
595.0000      	16806.7    	18.56189
596.0000      	16778.5    	18.71135
597.0000      	16750.4    	18.88181
598.0000      	16722.4    	19.01407
599.0000      	16694.5    	19.06077
600.0000      	16666.7    	19.14800
601.0000      	16638.9    	19.18625
602.0000      	16611.3    	19.21939
603.0000      	16583.7    	19.21993
604.0000      	16556.3    	19.20012
605.0000      	16528.9    	19.11303
606.0000      	16501.7    	19.12165
607.0000      	16474.5    	19.10308
608.0000      	16447.4    	19.16680
609.0000      	16420.4    	19.21103
610.0000      	16393.4    	19.26273
611.0000      	16366.6    	19.30388
612.0000      	16339.9    	19.29184
613.0000      	16313.2    	19.25564
614.0000      	16286.6    	19.28024
615.0000      	16260.2    	19.28109
616.0000      	16233.8    	19.26360
617.0000      	16207.5    	19.22851
618.0000      	16181.2    	19.23414
619.0000      	16155.1    	19.29927
620.0000      	16129    	19.35208
621.0000      	16103.1    	19.35469
622.0000      	16077.2    	19.33689
623.0000      	16051.4    	19.36065
624.0000      	16025.6    	19.43363
625.0000      	16000    	19.48568
626.0000      	15974.4    	19.50546
627.0000      	15949    	19.52087
628.0000      	15923.6    	19.60074
629.0000      	15898.3    	19.63743
630.0000      	15873    	19.58238
631.0000      	15847.9    	19.62104
632.0000      	15822.8    	19.66006
633.0000      	15797.8    	19.76151
634.0000      	15772.9    	19.80146
635.0000      	15748    	19.89678
636.0000      	15723.3    	20.00607
637.0000      	15698.6    	20.09283
638.0000      	15674    	20.15111
639.0000      	15649.5    	20.19415
640.0000      	15625    	20.23332
641.0000      	15600.6    	20.29691
642.0000      	15576.3    	20.33969
643.0000      	15552.1    	20.48890
644.0000      	15528    	20.70350
645.0000      	15503.9    	20.94676
646.0000      	15479.9    	21.10111
647.0000      	15456    	21.16246
648.0000      	15432.1    	21.28674
649.0000      	15408.3    	21.46852
650.0000      	15384.6    	21.75713
651.0000      	15361    	21.93972
652.0000      	15337.4    	22.09202
653.0000      	15313.9    	22.18001
654.0000      	15290.5    	22.43754
655.0000      	15267.2    	22.72476
656.0000      	15243.9    	22.98951
657.0000      	15220.7    	23.25192
658.0000      	15197.6    	23.39383
659.0000      	15174.5    	23.54467
660.0000      	15151.5    	23.76304
661.0000      	15128.6    	23.89617
662.0000      	15105.7    	24.13725
663.0000      	15083    	24.21694
664.0000      	15060.2    	24.36294
665.0000      	15037.6    	24.52334
666.0000      	15015    	24.77497
667.0000      	14992.5    	24.94422
668.0000      	14970.1    	24.98690
669.0000      	14947.7    	25.03387
670.0000      	14925.4    	25.04135
671.0000      	14903.1    	25.06472
672.0000      	14881    	24.98526
673.0000      	14858.8    	24.96787
674.0000      	14836.8    	24.97525
675.0000      	14814.8    	25.10690
676.0000      	14792.9    	25.13124
677.0000      	14771    	25.09610
678.0000      	14749.3    	25.01615
679.0000      	14727.5    	24.89547
680.0000      	14705.9    	24.81164
681.0000      	14684.3    	24.71326
682.0000      	14662.8    	24.57483
683.0000      	14641.3    	24.44333
684.0000      	14619.9    	24.33965
685.0000      	14598.5    	24.24057
686.0000      	14577.3    	24.16744
687.0000      	14556    	24.05547
688.0000      	14534.9    	24.00289
689.0000      	14513.8    	23.97348
690.0000      	14492.8    	23.90849
691.0000      	14471.8    	23.83093
692.0000      	14450.9    	23.64298
693.0000      	14430    	23.55585
694.0000      	14409.2    	23.34657
695.0000      	14388.5    	23.25469
696.0000      	14367.8    	23.24439
697.0000      	14347.2    	23.20290
698.0000      	14326.6    	23.15488
699.0000      	14306.2    	22.99157
700.0000      	14285.7    	22.89230
701.0000      	14265.3    	22.70453
702.0000      	14245    	22.43314
703.0000      	14224.8    	22.26188
704.0000      	14204.5    	22.03745
705.0000      	14184.4    	21.97397
706.0000      	14164.3    	21.73855
707.0000      	14144.3    	21.66260
708.0000      	14124.3    	21.62318
709.0000      	14104.4    	21.59370
710.0000      	14084.5    	21.44255
711.0000      	14064.7    	21.37181
712.0000      	14044.9    	21.30160
713.0000      	14025.2    	21.29223
714.0000      	14005.6    	21.28042
715.0000      	13986    	21.22950
716.0000      	13966.5    	21.32730
717.0000      	13947    	21.49175
718.0000      	13927.6    	21.56691
719.0000      	13908.2    	21.71793
720.0000      	13888.9    	21.95077
721.0000      	13869.6    	22.32000
722.0000      	13850.4    	22.50601
723.0000      	13831.3    	22.58282
724.0000      	13812.2    	22.70635
725.0000      	13793.1    	22.91371
726.0000      	13774.1    	23.40265
727.0000      	13755.2    	23.62601
728.0000      	13736.3    	23.72717
729.0000      	13717.4    	24.01510
730.0000      	13698.6    	24.48922
731.0000      	13679.9    	25.00560
732.0000      	13661.2    	25.22121
733.0000      	13642.6    	25.67051
734.0000      	13624    	26.17250
735.0000      	13605.4    	26.69693
736.0000      	13587    	27.19798
737.0000      	13568.5    	27.49452
738.0000      	13550.1    	28.20334
739.0000      	13531.8    	28.78369
740.0000      	13513.5    	29.51915
741.0000      	13495.3    	30.42678
742.0000      	13477.1    	30.89049
743.0000      	13459    	31.87648
744.0000      	13440.9    	32.68364
745.0000      	13422.8    	33.68810
746.0000      	13404.8    	34.81632
747.0000      	13386.9    	35.52375
748.0000      	13369    	36.89293
749.0000      	13351.1    	38.20724
750.0000      	13333.3    	39.67510
751.0000      	13315.6    	40.39720
752.0000      	13297.9    	41.87270
753.0000      	13280.2    	43.71852
754.0000      	13262.6    	45.47376
755.0000      	13245    	47.09678
756.0000      	13227.5    	47.89571
757.0000      	13210    	49.65912
758.0000      	13192.6    	51.26871
759.0000      	13175.2    	53.06481
760.0000      	13157.9    	54.92472
761.0000      	13140.6    	55.86978
762.0000      	13123.4    	57.40648
763.0000      	13106.2    	58.73227
764.0000      	13089    	60.06536
765.0000      	13071.9    	60.82217
766.0000      	13054.8    	62.03727
767.0000      	13037.8    	62.98508
768.0000      	13020.8    	63.80305
769.0000      	13003.9    	64.77885
770.0000      	12987    	65.29556
771.0000      	12970.2    	66.28406
772.0000      	12953.4    	66.90389
773.0000      	12936.6    	67.60784
774.0000      	12919.9    	68.12879
775.0000      	12903.2    	68.77441
776.0000      	12886.6    	69.10829
777.0000      	12870    	69.20982
778.0000      	12853.5    	69.51936
779.0000      	12837    	69.93007
780.0000      	12820.5    	70.30133
781.0000      	12804.1    	70.56515
782.0000      	12787.7    	70.58833
783.0000      	12771.4    	70.71115
784.0000      	12755.1    	70.88484
785.0000      	12738.9    	71.42191
786.0000      	12722.6    	71.75446
787.0000      	12706.5    	71.54707
788.0000      	12690.4    	71.84174
789.0000      	12674.3    	72.07993
790.0000      	12658.2    	72.51299
791.0000      	12642.2    	72.40983
792.0000      	12626.3    	72.42027
793.0000      	12610.3    	72.33396
794.0000      	12594.5    	72.55963
795.0000      	12578.6    	72.88982
796.0000      	12562.8    	73.16285
797.0000      	12547.1    	73.39751
798.0000      	12531.3    	73.39501
799.0000      	12515.6    	73.23940
800.0000      	12500    	73.20533