File: data/Reflectance_measurements/Reflectance_2019_material/50_white/50_white_3.txt
Unit Serial No : 240-IM0P2424-EU
Integration Time : 10 ms
Time Average: 10
Binning Average: 2
FFT Smoothing: 0%
Project Name : RPS900-R
Sample Name :  SM240-IMOP2424-EU
Measurement No : 1
Measurement Time : 06/03/2019   14:43:13

Wavelength(nm)	Wavenumber(1/cm)	Transmittance(%)
300.0000      	33333.3    	13.55721
301.0000      	33222.6    	13.70117
302.0000      	33112.6    	12.73677
303.0000      	33003.3    	12.80470
304.0000      	32894.7    	13.53183
305.0000      	32786.9    	12.70590
306.0000      	32679.7    	11.50269
307.0000      	32573.3    	11.18318
308.0000      	32467.5    	11.66106
309.0000      	32362.5    	11.50355
310.0000      	32258.1    	10.61573
311.0000      	32154.3    	10.20006
312.0000      	32051.3    	9.81946
313.0000      	31948.9    	10.42789
314.0000      	31847.1    	10.88906
315.0000      	31746    	10.84715
316.0000      	31645.6    	10.47270
317.0000      	31545.7    	9.71942
318.0000      	31446.5    	9.59891
319.0000      	31348    	8.73760
320.0000      	31250    	8.86249
321.0000      	31152.6    	8.41769
322.0000      	31055.9    	8.57605
323.0000      	30959.8    	8.78150
324.0000      	30864.2    	8.49376
325.0000      	30769.2    	8.14213
326.0000      	30674.8    	8.06203
327.0000      	30581    	8.35959
328.0000      	30487.8    	8.18305
329.0000      	30395.1    	8.12686
330.0000      	30303    	7.74759
331.0000      	30211.5    	7.62923
332.0000      	30120.5    	7.93934
333.0000      	30030    	7.77376
334.0000      	29940.1    	8.06122
335.0000      	29850.7    	7.66079
336.0000      	29761.9    	7.46934
337.0000      	29673.6    	7.53027
338.0000      	29585.8    	8.01828
339.0000      	29498.5    	8.02525
340.0000      	29411.8    	7.65658
341.0000      	29325.5    	7.51086
342.0000      	29239.8    	7.65190
343.0000      	29154.5    	7.46905
344.0000      	29069.8    	7.48520
345.0000      	28985.5    	7.61042
346.0000      	28901.7    	7.44187
347.0000      	28818.4    	7.34737
348.0000      	28735.6    	7.47211
349.0000      	28653.3    	7.56255
350.0000      	28571.4    	7.67215
351.0000      	28490    	7.74783
352.0000      	28409.1    	7.79043
353.0000      	28328.6    	7.73419
354.0000      	28248.6    	7.77094
355.0000      	28169    	7.70146
356.0000      	28089.9    	8.09509
357.0000      	28011.2    	8.05287
358.0000      	27933    	7.92379
359.0000      	27855.2    	8.05069
360.0000      	27777.8    	8.34582
361.0000      	27700.8    	8.54429
362.0000      	27624.3    	8.51187
363.0000      	27548.2    	8.42241
364.0000      	27472.5    	8.34713
365.0000      	27397.3    	8.27335
366.0000      	27322.4    	8.50083
367.0000      	27248    	8.72426
368.0000      	27173.9    	8.85160
369.0000      	27100.3    	8.94799
370.0000      	27027    	8.89764
371.0000      	26954.2    	8.85189
372.0000      	26881.7    	8.96072
373.0000      	26809.7    	9.11370
374.0000      	26738    	9.32945
375.0000      	26666.7    	9.46534
376.0000      	26595.7    	9.66630
377.0000      	26525.2    	9.79651
378.0000      	26455    	9.89221
379.0000      	26385.2    	10.10032
380.0000      	26315.8    	10.39957
381.0000      	26246.7    	10.59932
382.0000      	26178    	10.69485
383.0000      	26109.7    	11.00563
384.0000      	26041.7    	11.19100
385.0000      	25974    	11.38338
386.0000      	25906.7    	11.62024
387.0000      	25839.8    	12.05084
388.0000      	25773.2    	12.12832
389.0000      	25706.9    	12.33963
390.0000      	25641    	12.70338
391.0000      	25575.4    	12.74363
392.0000      	25510.2    	12.83809
393.0000      	25445.3    	13.08448
394.0000      	25380.7    	13.48620
395.0000      	25316.5    	13.88746
396.0000      	25252.5    	14.37381
397.0000      	25188.9    	14.72855
398.0000      	25125.6    	15.01042
399.0000      	25062.7    	15.25876
400.0000      	25000    	15.56589
401.0000      	24937.7    	15.99541
402.0000      	24875.6    	16.17451
403.0000      	24813.9    	16.55009
404.0000      	24752.5    	16.81750
405.0000      	24691.4    	17.31134
406.0000      	24630.5    	17.74609
407.0000      	24570    	18.04398
408.0000      	24509.8    	18.48042
409.0000      	24449.9    	18.99078
410.0000      	24390.2    	19.36102
411.0000      	24330.9    	19.69044
412.0000      	24271.8    	19.88157
413.0000      	24213.1    	20.34964
414.0000      	24154.6    	20.71913
415.0000      	24096.4    	21.03955
416.0000      	24038.5    	21.25578
417.0000      	23980.8    	21.44320
418.0000      	23923.4    	21.64769
419.0000      	23866.3    	21.91485
420.0000      	23809.5    	21.99807
421.0000      	23753    	22.00477
422.0000      	23696.7    	21.94791
423.0000      	23640.7    	22.15810
424.0000      	23584.9    	22.48001
425.0000      	23529.4    	22.58110
426.0000      	23474.2    	22.77875
427.0000      	23419.2    	22.96153
428.0000      	23364.5    	23.08681
429.0000      	23310    	23.10466
430.0000      	23255.8    	23.21591
431.0000      	23201.9    	23.42710
432.0000      	23148.1    	23.63058
433.0000      	23094.7    	23.67552
434.0000      	23041.5    	23.76911
435.0000      	22988.5    	24.03876
436.0000      	22935.8    	24.23177
437.0000      	22883.3    	24.49813
438.0000      	22831.1    	24.52830
439.0000      	22779    	24.67431
440.0000      	22727.3    	24.83427
441.0000      	22675.7    	25.01892
442.0000      	22624.4    	25.05717
443.0000      	22573.4    	25.15179
444.0000      	22522.5    	25.19460
445.0000      	22471.9    	25.24379
446.0000      	22421.5    	25.26500
447.0000      	22371.4    	25.40760
448.0000      	22321.4    	25.30292
449.0000      	22271.7    	25.23648
450.0000      	22222.2    	25.19958
451.0000      	22172.9    	25.30720
452.0000      	22123.9    	25.45537
453.0000      	22075.1    	25.55039
454.0000      	22026.4    	25.70620
455.0000      	21978    	25.72887
456.0000      	21929.8    	25.91100
457.0000      	21881.8    	25.96457
458.0000      	21834.1    	26.00649
459.0000      	21786.5    	26.19580
460.0000      	21739.1    	26.34999
461.0000      	21692    	26.58655
462.0000      	21645    	26.68924
463.0000      	21598.3    	26.91299
464.0000      	21551.7    	27.01344
465.0000      	21505.4    	27.27023
466.0000      	21459.2    	27.49772
467.0000      	21413.3    	27.49168
468.0000      	21367.5    	27.58322
469.0000      	21322    	27.80328
470.0000      	21276.6    	27.98199
471.0000      	21231.4    	28.25148
472.0000      	21186.4    	28.56461
473.0000      	21141.6    	28.83146
474.0000      	21097    	29.15771
475.0000      	21052.6    	29.42893
476.0000      	21008.4    	29.61446
477.0000      	20964.4    	29.84179
478.0000      	20920.5    	29.92596
479.0000      	20876.8    	30.17883
480.0000      	20833.3    	30.44748
481.0000      	20790    	30.80862
482.0000      	20746.9    	31.13123
483.0000      	20703.9    	31.38462
484.0000      	20661.2    	31.62508
485.0000      	20618.6    	31.79517
486.0000      	20576.1    	32.09853
487.0000      	20533.9    	32.39967
488.0000      	20491.8    	32.63894
489.0000      	20449.9    	32.97464
490.0000      	20408.2    	33.24433
491.0000      	20366.6    	33.54623
492.0000      	20325.2    	33.70554
493.0000      	20284    	34.03716
494.0000      	20242.9    	34.25493
495.0000      	20202    	34.44825
496.0000      	20161.3    	34.70967
497.0000      	20120.7    	34.95767
498.0000      	20080.3    	35.15087
499.0000      	20040.1    	35.20998
500.0000      	20000    	35.34798
501.0000      	19960.1    	35.45715
502.0000      	19920.3    	35.55833
503.0000      	19880.7    	35.59709
504.0000      	19841.3    	35.65194
505.0000      	19802    	35.54120
506.0000      	19762.8    	35.46745
507.0000      	19723.9    	35.32214
508.0000      	19685    	35.20342
509.0000      	19646.4    	34.95997
510.0000      	19607.8    	34.67628
511.0000      	19569.5    	34.27807
512.0000      	19531.2    	33.78078
513.0000      	19493.2    	33.52959
514.0000      	19455.3    	33.11160
515.0000      	19417.5    	32.64650
516.0000      	19379.8    	32.02070
517.0000      	19342.4    	31.36472
518.0000      	19305    	30.72007
519.0000      	19267.8    	30.40170
520.0000      	19230.8    	29.72797
521.0000      	19193.9    	29.03112
522.0000      	19157.1    	28.39018
523.0000      	19120.5    	27.76664
524.0000      	19084    	27.14300
525.0000      	19047.6    	26.51760
526.0000      	19011.4    	26.22943
527.0000      	18975.3    	25.70678
528.0000      	18939.4    	25.21822
529.0000      	18903.6    	24.77578
530.0000      	18867.9    	24.40916
531.0000      	18832.4    	24.03991
532.0000      	18797    	23.71959
533.0000      	18761.7    	23.60693
534.0000      	18726.6    	23.40401
535.0000      	18691.6    	23.21815
536.0000      	18656.7    	22.96369
537.0000      	18622    	22.79793
538.0000      	18587.4    	22.75527
539.0000      	18552.9    	22.74821
540.0000      	18518.5    	22.73501
541.0000      	18484.3    	22.64803
542.0000      	18450.2    	22.61928
543.0000      	18416.2    	22.65207
544.0000      	18382.4    	22.64867
545.0000      	18348.6    	22.64509
546.0000      	18315    	22.59783
547.0000      	18281.5    	22.52402
548.0000      	18248.2    	22.46959
549.0000      	18214.9    	22.40517
550.0000      	18181.8    	22.31609
551.0000      	18148.8    	22.22766
552.0000      	18115.9    	22.00136
553.0000      	18083.2    	21.70736
554.0000      	18050.5    	21.41599
555.0000      	18018    	21.10973
556.0000      	17985.6    	20.75845
557.0000      	17953.3    	20.37405
558.0000      	17921.1    	20.19455
559.0000      	17889.1    	19.84542
560.0000      	17857.1    	19.47771
561.0000      	17825.3    	19.14326
562.0000      	17793.6    	18.80786
563.0000      	17762    	18.49661
564.0000      	17730.5    	18.32361
565.0000      	17699.1    	18.03281
566.0000      	17667.8    	17.82684
567.0000      	17636.7    	17.63283
568.0000      	17605.6    	17.51225
569.0000      	17574.7    	17.42248
570.0000      	17543.9    	17.41374
571.0000      	17513.1    	17.38991
572.0000      	17482.5    	17.53680
573.0000      	17452    	17.74438
574.0000      	17421.6    	17.93968
575.0000      	17391.3    	18.04290
576.0000      	17361.1    	18.33505
577.0000      	17331    	18.71080
578.0000      	17301    	19.14038
579.0000      	17271.2    	19.59359
580.0000      	17241.4    	20.11553
581.0000      	17211.7    	20.42740
582.0000      	17182.1    	21.09114
583.0000      	17152.7    	21.62687
584.0000      	17123.3    	22.16498
585.0000      	17094    	22.79549
586.0000      	17064.8    	23.36984
587.0000      	17035.8    	23.66080
588.0000      	17006.8    	24.18084
589.0000      	16977.9    	24.73814
590.0000      	16949.2    	25.21994
591.0000      	16920.5    	25.63625
592.0000      	16891.9    	26.02019
593.0000      	16863.4    	26.21797
594.0000      	16835    	26.51329
595.0000      	16806.7    	26.78208
596.0000      	16778.5    	26.98175
597.0000      	16750.4    	27.16830
598.0000      	16722.4    	27.28475
599.0000      	16694.5    	27.28372
600.0000      	16666.7    	27.30568
601.0000      	16638.9    	27.33158
602.0000      	16611.3    	27.43857
603.0000      	16583.7    	27.44600
604.0000      	16556.3    	27.36103
605.0000      	16528.9    	27.31007
606.0000      	16501.7    	27.30135
607.0000      	16474.5    	27.27311
608.0000      	16447.4    	27.19231
609.0000      	16420.4    	27.20868
610.0000      	16393.4    	27.19867
611.0000      	16366.6    	27.22651
612.0000      	16339.9    	27.24881
613.0000      	16313.2    	27.19547
614.0000      	16286.6    	27.14427
615.0000      	16260.2    	27.12894
616.0000      	16233.8    	27.14318
617.0000      	16207.5    	27.20980
618.0000      	16181.2    	27.24866
619.0000      	16155.1    	27.24252
620.0000      	16129    	27.31539
621.0000      	16103.1    	27.32088
622.0000      	16077.2    	27.27886
623.0000      	16051.4    	27.22138
624.0000      	16025.6    	27.25653
625.0000      	16000    	27.37362
626.0000      	15974.4    	27.38891
627.0000      	15949    	27.44853
628.0000      	15923.6    	27.49091
629.0000      	15898.3    	27.53180
630.0000      	15873    	27.43286
631.0000      	15847.9    	27.49638
632.0000      	15822.8    	27.58877
633.0000      	15797.8    	27.69901
634.0000      	15772.9    	27.79211
635.0000      	15748    	27.95335
636.0000      	15723.3    	28.02739
637.0000      	15698.6    	28.07714
638.0000      	15674    	28.10149
639.0000      	15649.5    	28.25918
640.0000      	15625    	28.38565
641.0000      	15600.6    	28.53114
642.0000      	15576.3    	28.60361
643.0000      	15552.1    	28.87995
644.0000      	15528    	29.10505
645.0000      	15503.9    	29.32164
646.0000      	15479.9    	29.56305
647.0000      	15456    	29.63913
648.0000      	15432.1    	29.90932
649.0000      	15408.3    	30.17891
650.0000      	15384.6    	30.50073
651.0000      	15361    	30.72742
652.0000      	15337.4    	31.08133
653.0000      	15313.9    	31.24237
654.0000      	15290.5    	31.54969
655.0000      	15267.2    	31.88713
656.0000      	15243.9    	32.20207
657.0000      	15220.7    	32.46996
658.0000      	15197.6    	32.60972
659.0000      	15174.5    	32.87416
660.0000      	15151.5    	33.24294
661.0000      	15128.6    	33.46902
662.0000      	15105.7    	33.78318
663.0000      	15083    	33.87664
664.0000      	15060.2    	34.12157
665.0000      	15037.6    	34.30017
666.0000      	15015    	34.57077
667.0000      	14992.5    	34.68739
668.0000      	14970.1    	34.76702
669.0000      	14947.7    	34.84946
670.0000      	14925.4    	34.88680
671.0000      	14903.1    	34.85327
672.0000      	14881    	34.86163
673.0000      	14858.8    	34.89897
674.0000      	14836.8    	34.82696
675.0000      	14814.8    	34.84655
676.0000      	14792.9    	34.86032
677.0000      	14771    	34.84227
678.0000      	14749.3    	34.76696
679.0000      	14727.5    	34.65938
680.0000      	14705.9    	34.44535
681.0000      	14684.3    	34.30956
682.0000      	14662.8    	34.24881
683.0000      	14641.3    	34.15375
684.0000      	14619.9    	34.01618
685.0000      	14598.5    	33.72111
686.0000      	14577.3    	33.49592
687.0000      	14556    	33.33330
688.0000      	14534.9    	33.34724
689.0000      	14513.8    	33.34198
690.0000      	14492.8    	33.33090
691.0000      	14471.8    	33.14678
692.0000      	14450.9    	32.85089
693.0000      	14430    	32.75045
694.0000      	14409.2    	32.67135
695.0000      	14388.5    	32.62889
696.0000      	14367.8    	32.41710
697.0000      	14347.2    	32.19859
698.0000      	14326.6    	32.12581
699.0000      	14306.2    	32.00364
700.0000      	14285.7    	31.98915
701.0000      	14265.3    	31.80457
702.0000      	14245    	31.59201
703.0000      	14224.8    	31.42650
704.0000      	14204.5    	31.26677
705.0000      	14184.4    	31.05875
706.0000      	14164.3    	30.73732
707.0000      	14144.3    	30.60109
708.0000      	14124.3    	30.62007
709.0000      	14104.4    	30.58131
710.0000      	14084.5    	30.46332
711.0000      	14064.7    	30.33305
712.0000      	14044.9    	30.14264
713.0000      	14025.2    	30.10933
714.0000      	14005.6    	29.98035
715.0000      	13986    	30.10594
716.0000      	13966.5    	30.35672
717.0000      	13947    	30.60252
718.0000      	13927.6    	30.70468
719.0000      	13908.2    	30.89116
720.0000      	13888.9    	31.05862
721.0000      	13869.6    	31.19817
722.0000      	13850.4    	31.43288
723.0000      	13831.3    	31.59700
724.0000      	13812.2    	32.01384
725.0000      	13793.1    	32.37819
726.0000      	13774.1    	32.83546
727.0000      	13755.2    	33.16359
728.0000      	13736.3    	33.34794
729.0000      	13717.4    	33.81155
730.0000      	13698.6    	34.22081
731.0000      	13679.9    	34.61573
732.0000      	13661.2    	34.85040
733.0000      	13642.6    	35.45760
734.0000      	13624    	36.18817
735.0000      	13605.4    	36.77412
736.0000      	13587    	37.41813
737.0000      	13568.5    	37.83857
738.0000      	13550.1    	38.89867
739.0000      	13531.8    	39.68421
740.0000      	13513.5    	40.54134
741.0000      	13495.3    	41.51268
742.0000      	13477.1    	42.05494
743.0000      	13459    	43.23726
744.0000      	13440.9    	44.39395
745.0000      	13422.8    	45.53832
746.0000      	13404.8    	46.71498
747.0000      	13386.9    	47.36998
748.0000      	13369    	48.90802
749.0000      	13351.1    	50.41876
750.0000      	13333.3    	51.93229
751.0000      	13315.6    	52.69604
752.0000      	13297.9    	54.29036
753.0000      	13280.2    	56.17183
754.0000      	13262.6    	58.02593
755.0000      	13245    	60.01863
756.0000      	13227.5    	60.94507
757.0000      	13210    	62.60193
758.0000      	13192.6    	64.33817
759.0000      	13175.2    	66.15513
760.0000      	13157.9    	67.88308
761.0000      	13140.6    	68.71284
762.0000      	13123.4    	70.13139
763.0000      	13106.2    	71.65881
764.0000      	13089    	72.99526
765.0000      	13071.9    	73.76741
766.0000      	13054.8    	74.95444
767.0000      	13037.8    	75.90508
768.0000      	13020.8    	76.55986
769.0000      	13003.9    	77.29073
770.0000      	12987    	77.60889
771.0000      	12970.2    	78.39078
772.0000      	12953.4    	79.33502
773.0000      	12936.6    	80.13652
774.0000      	12919.9    	80.32172
775.0000      	12903.2    	80.44799
776.0000      	12886.6    	80.79025
777.0000      	12870    	81.55345
778.0000      	12853.5    	81.82409
779.0000      	12837    	82.06847
780.0000      	12820.5    	82.00146
781.0000      	12804.1    	81.98094
782.0000      	12787.7    	82.53677
783.0000      	12771.4    	83.19484
784.0000      	12755.1    	83.37168
785.0000      	12738.9    	83.50996
786.0000      	12722.6    	83.54906
787.0000      	12706.5    	83.60775
788.0000      	12690.4    	83.92220
789.0000      	12674.3    	84.12846
790.0000      	12658.2    	84.27370
791.0000      	12642.2    	83.68173
792.0000      	12626.3    	83.45526
793.0000      	12610.3    	83.43777
794.0000      	12594.5    	83.87643
795.0000      	12578.6    	84.33131
796.0000      	12562.8    	84.52151
797.0000      	12547.1    	84.44821
798.0000      	12531.3    	84.21137
799.0000      	12515.6    	84.07390
800.0000      	12500    	84.49094