File: data/Reflectance_measurements/Reflectance_2019_material/50_white/50_white.txt
Unit Serial No : 240-IM0P2424-EU
Integration Time : 10 ms
Time Average: 10
Binning Average: 2
FFT Smoothing: 0%
Project Name : RPS900-R
Sample Name :  SM240-IMOP2424-EU
Measurement No : 1
Measurement Time : 06/03/2019   14:42:15

Wavelength(nm)	Wavenumber(1/cm)	Transmittance(%)
300.0000      	33333.3    	11.39132
301.0000      	33222.6    	12.57522
302.0000      	33112.6    	13.12584
303.0000      	33003.3    	12.61000
304.0000      	32894.7    	11.78432
305.0000      	32786.9    	10.03686
306.0000      	32679.7    	10.22812
307.0000      	32573.3    	10.73476
308.0000      	32467.5    	10.97963
309.0000      	32362.5    	10.00591
310.0000      	32258.1    	9.81545
311.0000      	32154.3    	9.85131
312.0000      	32051.3    	9.97281
313.0000      	31948.9    	10.56129
314.0000      	31847.1    	10.34921
315.0000      	31746    	9.51422
316.0000      	31645.6    	8.53981
317.0000      	31545.7    	8.42493
318.0000      	31446.5    	8.75934
319.0000      	31348    	8.68282
320.0000      	31250    	9.21707
321.0000      	31152.6    	8.42910
322.0000      	31055.9    	8.56509
323.0000      	30959.8    	8.92386
324.0000      	30864.2    	8.84307
325.0000      	30769.2    	8.50471
326.0000      	30674.8    	8.10747
327.0000      	30581    	8.20246
328.0000      	30487.8    	8.12971
329.0000      	30395.1    	8.04322
330.0000      	30303    	7.51360
331.0000      	30211.5    	7.08727
332.0000      	30120.5    	7.27617
333.0000      	30030    	7.19083
334.0000      	29940.1    	7.60280
335.0000      	29850.7    	7.49434
336.0000      	29761.9    	7.42467
337.0000      	29673.6    	7.35345
338.0000      	29585.8    	7.45154
339.0000      	29498.5    	7.21386
340.0000      	29411.8    	7.36585
341.0000      	29325.5    	7.46930
342.0000      	29239.8    	7.41954
343.0000      	29154.5    	6.99177
344.0000      	29069.8    	6.89689
345.0000      	28985.5    	6.98722
346.0000      	28901.7    	7.15807
347.0000      	28818.4    	7.01988
348.0000      	28735.6    	7.05189
349.0000      	28653.3    	7.12061
350.0000      	28571.4    	7.54611
351.0000      	28490    	7.58294
352.0000      	28409.1    	7.51969
353.0000      	28328.6    	7.38260
354.0000      	28248.6    	7.51169
355.0000      	28169    	7.42030
356.0000      	28089.9    	7.90149
357.0000      	28011.2    	7.94756
358.0000      	27933    	8.03613
359.0000      	27855.2    	8.11288
360.0000      	27777.8    	8.17140
361.0000      	27700.8    	8.21152
362.0000      	27624.3    	8.33001
363.0000      	27548.2    	8.35428
364.0000      	27472.5    	8.12676
365.0000      	27397.3    	8.13349
366.0000      	27322.4    	8.38266
367.0000      	27248    	8.49709
368.0000      	27173.9    	8.53147
369.0000      	27100.3    	8.62446
370.0000      	27027    	8.61137
371.0000      	26954.2    	8.61629
372.0000      	26881.7    	8.76968
373.0000      	26809.7    	9.00690
374.0000      	26738    	9.25155
375.0000      	26666.7    	9.33037
376.0000      	26595.7    	9.53464
377.0000      	26525.2    	9.65383
378.0000      	26455    	9.90149
379.0000      	26385.2    	9.97297
380.0000      	26315.8    	10.13658
381.0000      	26246.7    	10.31846
382.0000      	26178    	10.45171
383.0000      	26109.7    	10.77784
384.0000      	26041.7    	11.02132
385.0000      	25974    	11.34384
386.0000      	25906.7    	11.48466
387.0000      	25839.8    	11.72193
388.0000      	25773.2    	11.79694
389.0000      	25706.9    	12.05576
390.0000      	25641    	12.33053
391.0000      	25575.4    	12.51542
392.0000      	25510.2    	12.65015
393.0000      	25445.3    	12.92200
394.0000      	25380.7    	13.27329
395.0000      	25316.5    	13.57730
396.0000      	25252.5    	13.91908
397.0000      	25188.9    	14.17642
398.0000      	25125.6    	14.46317
399.0000      	25062.7    	14.80506
400.0000      	25000    	15.18277
401.0000      	24937.7    	15.60192
402.0000      	24875.6    	15.76990
403.0000      	24813.9    	16.11204
404.0000      	24752.5    	16.41467
405.0000      	24691.4    	17.05528
406.0000      	24630.5    	17.55589
407.0000      	24570    	17.92830
408.0000      	24509.8    	18.19946
409.0000      	24449.9    	18.55161
410.0000      	24390.2    	18.90534
411.0000      	24330.9    	19.36391
412.0000      	24271.8    	19.59719
413.0000      	24213.1    	19.98913
414.0000      	24154.6    	20.29643
415.0000      	24096.4    	20.60480
416.0000      	24038.5    	20.83114
417.0000      	23980.8    	21.04086
418.0000      	23923.4    	21.12995
419.0000      	23866.3    	21.35750
420.0000      	23809.5    	21.47500
421.0000      	23753    	21.59371
422.0000      	23696.7    	21.75702
423.0000      	23640.7    	21.92562
424.0000      	23584.9    	22.15603
425.0000      	23529.4    	22.24523
426.0000      	23474.2    	22.47165
427.0000      	23419.2    	22.54776
428.0000      	23364.5    	22.59767
429.0000      	23310    	22.76989
430.0000      	23255.8    	22.90408
431.0000      	23201.9    	23.17898
432.0000      	23148.1    	23.32755
433.0000      	23094.7    	23.40289
434.0000      	23041.5    	23.58038
435.0000      	22988.5    	23.72590
436.0000      	22935.8    	23.88247
437.0000      	22883.3    	24.10483
438.0000      	22831.1    	24.15709
439.0000      	22779    	24.36028
440.0000      	22727.3    	24.59842
441.0000      	22675.7    	24.74803
442.0000      	22624.4    	24.82246
443.0000      	22573.4    	24.95038
444.0000      	22522.5    	24.93906
445.0000      	22471.9    	24.88079
446.0000      	22421.5    	24.84223
447.0000      	22371.4    	24.88460
448.0000      	22321.4    	24.81387
449.0000      	22271.7    	24.77341
450.0000      	22222.2    	24.74549
451.0000      	22172.9    	24.79102
452.0000      	22123.9    	25.10373
453.0000      	22075.1    	25.28828
454.0000      	22026.4    	25.40777
455.0000      	21978    	25.39889
456.0000      	21929.8    	25.49064
457.0000      	21881.8    	25.65017
458.0000      	21834.1    	25.81261
459.0000      	21786.5    	25.95320
460.0000      	21739.1    	26.01904
461.0000      	21692    	26.05698
462.0000      	21645    	26.12529
463.0000      	21598.3    	26.29773
464.0000      	21551.7    	26.50495
465.0000      	21505.4    	26.69891
466.0000      	21459.2    	26.88174
467.0000      	21413.3    	27.02806
468.0000      	21367.5    	27.25194
469.0000      	21322    	27.45453
470.0000      	21276.6    	27.54938
471.0000      	21231.4    	27.68765
472.0000      	21186.4    	27.98606
473.0000      	21141.6    	28.24698
474.0000      	21097    	28.52365
475.0000      	21052.6    	28.83401
476.0000      	21008.4    	29.10384
477.0000      	20964.4    	29.24714
478.0000      	20920.5    	29.35619
479.0000      	20876.8    	29.59377
480.0000      	20833.3    	29.93491
481.0000      	20790    	30.27089
482.0000      	20746.9    	30.56731
483.0000      	20703.9    	30.76714
484.0000      	20661.2    	30.97144
485.0000      	20618.6    	31.12481
486.0000      	20576.1    	31.43321
487.0000      	20533.9    	31.74644
488.0000      	20491.8    	32.04238
489.0000      	20449.9    	32.37509
490.0000      	20408.2    	32.67345
491.0000      	20366.6    	32.98466
492.0000      	20325.2    	33.14080
493.0000      	20284    	33.40881
494.0000      	20242.9    	33.63863
495.0000      	20202    	33.87325
496.0000      	20161.3    	34.11802
497.0000      	20120.7    	34.35150
498.0000      	20080.3    	34.52711
499.0000      	20040.1    	34.63472
500.0000      	20000    	34.77620
501.0000      	19960.1    	34.87614
502.0000      	19920.3    	34.93575
503.0000      	19880.7    	35.01396
504.0000      	19841.3    	35.04643
505.0000      	19802    	34.89311
506.0000      	19762.8    	34.80768
507.0000      	19723.9    	34.65351
508.0000      	19685    	34.49732
509.0000      	19646.4    	34.27241
510.0000      	19607.8    	33.94982
511.0000      	19569.5    	33.64346
512.0000      	19531.2    	33.25988
513.0000      	19493.2    	33.03083
514.0000      	19455.3    	32.54339
515.0000      	19417.5    	32.02358
516.0000      	19379.8    	31.43579
517.0000      	19342.4    	30.82785
518.0000      	19305    	30.21870
519.0000      	19267.8    	29.92126
520.0000      	19230.8    	29.34965
521.0000      	19193.9    	28.68177
522.0000      	19157.1    	28.01847
523.0000      	19120.5    	27.36018
524.0000      	19084    	26.74133
525.0000      	19047.6    	26.13797
526.0000      	19011.4    	25.88602
527.0000      	18975.3    	25.40717
528.0000      	18939.4    	24.89832
529.0000      	18903.6    	24.44552
530.0000      	18867.9    	24.09411
531.0000      	18832.4    	23.78898
532.0000      	18797    	23.45428
533.0000      	18761.7    	23.27027
534.0000      	18726.6    	23.00807
535.0000      	18691.6    	22.78425
536.0000      	18656.7    	22.59613
537.0000      	18622    	22.42785
538.0000      	18587.4    	22.33654
539.0000      	18552.9    	22.29839
540.0000      	18518.5    	22.29085
541.0000      	18484.3    	22.28796
542.0000      	18450.2    	22.30349
543.0000      	18416.2    	22.35481
544.0000      	18382.4    	22.30013
545.0000      	18348.6    	22.28018
546.0000      	18315    	22.21735
547.0000      	18281.5    	22.27809
548.0000      	18248.2    	22.30998
549.0000      	18214.9    	22.13636
550.0000      	18181.8    	21.94800
551.0000      	18148.8    	21.82831
552.0000      	18115.9    	21.58645
553.0000      	18083.2    	21.35023
554.0000      	18050.5    	21.08887
555.0000      	18018    	20.76467
556.0000      	17985.6    	20.39368
557.0000      	17953.3    	20.00108
558.0000      	17921.1    	19.83759
559.0000      	17889.1    	19.48091
560.0000      	17857.1    	19.17141
561.0000      	17825.3    	18.81763
562.0000      	17793.6    	18.43402
563.0000      	17762    	18.13445
564.0000      	17730.5    	17.99584
565.0000      	17699.1    	17.75330
566.0000      	17667.8    	17.51775
567.0000      	17636.7    	17.32118
568.0000      	17605.6    	17.18720
569.0000      	17574.7    	17.15344
570.0000      	17543.9    	17.17458
571.0000      	17513.1    	17.18174
572.0000      	17482.5    	17.23798
573.0000      	17452    	17.35750
574.0000      	17421.6    	17.57789
575.0000      	17391.3    	17.71245
576.0000      	17361.1    	18.01772
577.0000      	17331    	18.41182
578.0000      	17301    	18.86099
579.0000      	17271.2    	19.31225
580.0000      	17241.4    	19.78209
581.0000      	17211.7    	20.06275
582.0000      	17182.1    	20.67403
583.0000      	17152.7    	21.26011
584.0000      	17123.3    	21.80427
585.0000      	17094    	22.35938
586.0000      	17064.8    	22.89479
587.0000      	17035.8    	23.19072
588.0000      	17006.8    	23.76961
589.0000      	16977.9    	24.31907
590.0000      	16949.2    	24.77892
591.0000      	16920.5    	25.12531
592.0000      	16891.9    	25.48023
593.0000      	16863.4    	25.63144
594.0000      	16835    	25.94831
595.0000      	16806.7    	26.25234
596.0000      	16778.5    	26.49167
597.0000      	16750.4    	26.61703
598.0000      	16722.4    	26.69965
599.0000      	16694.5    	26.73339
600.0000      	16666.7    	26.79645
601.0000      	16638.9    	26.85006
602.0000      	16611.3    	26.84573
603.0000      	16583.7    	26.85121
604.0000      	16556.3    	26.82642
605.0000      	16528.9    	26.86770
606.0000      	16501.7    	26.94612
607.0000      	16474.5    	26.86668
608.0000      	16447.4    	26.69281
609.0000      	16420.4    	26.69223
610.0000      	16393.4    	26.67425
611.0000      	16366.6    	26.71939
612.0000      	16339.9    	26.73142
613.0000      	16313.2    	26.76040
614.0000      	16286.6    	26.77860
615.0000      	16260.2    	26.74223
616.0000      	16233.8    	26.67202
617.0000      	16207.5    	26.67683
618.0000      	16181.2    	26.71691
619.0000      	16155.1    	26.84118
620.0000      	16129    	26.82388
621.0000      	16103.1    	26.82841
622.0000      	16077.2    	26.76607
623.0000      	16051.4    	26.79829
624.0000      	16025.6    	26.81794
625.0000      	16000    	26.94743
626.0000      	15974.4    	27.02099
627.0000      	15949    	27.13851
628.0000      	15923.6    	27.17729
629.0000      	15898.3    	27.16627
630.0000      	15873    	27.10559
631.0000      	15847.9    	27.12740
632.0000      	15822.8    	27.19044
633.0000      	15797.8    	27.30688
634.0000      	15772.9    	27.36588
635.0000      	15748    	27.49097
636.0000      	15723.3    	27.62179
637.0000      	15698.6    	27.69420
638.0000      	15674    	27.76228
639.0000      	15649.5    	27.77346
640.0000      	15625    	27.91248
641.0000      	15600.6    	28.04946
642.0000      	15576.3    	28.16041
643.0000      	15552.1    	28.34932
644.0000      	15528    	28.53469
645.0000      	15503.9    	28.75202
646.0000      	15479.9    	29.04086
647.0000      	15456    	29.19473
648.0000      	15432.1    	29.45579
649.0000      	15408.3    	29.69580
650.0000      	15384.6    	29.91616
651.0000      	15361    	30.14237
652.0000      	15337.4    	30.47814
653.0000      	15313.9    	30.68794
654.0000      	15290.5    	31.03388
655.0000      	15267.2    	31.30744
656.0000      	15243.9    	31.55137
657.0000      	15220.7    	31.79522
658.0000      	15197.6    	31.99968
659.0000      	15174.5    	32.33388
660.0000      	15151.5    	32.72690
661.0000      	15128.6    	32.91262
662.0000      	15105.7    	33.11087
663.0000      	15083    	33.21362
664.0000      	15060.2    	33.41606
665.0000      	15037.6    	33.61552
666.0000      	15015    	33.81406
667.0000      	14992.5    	33.91482
668.0000      	14970.1    	34.00042
669.0000      	14947.7    	34.10521
670.0000      	14925.4    	34.18963
671.0000      	14903.1    	34.27434
672.0000      	14881    	34.23396
673.0000      	14858.8    	34.24925
674.0000      	14836.8    	34.23120
675.0000      	14814.8    	34.19081
676.0000      	14792.9    	34.04797
677.0000      	14771    	33.99754
678.0000      	14749.3    	33.95009
679.0000      	14727.5    	33.86903
680.0000      	14705.9    	33.78983
681.0000      	14684.3    	33.77271
682.0000      	14662.8    	33.66772
683.0000      	14641.3    	33.51374
684.0000      	14619.9    	33.28431
685.0000      	14598.5    	33.11975
686.0000      	14577.3    	33.04476
687.0000      	14556    	32.98736
688.0000      	14534.9    	32.94652
689.0000      	14513.8    	32.72568
690.0000      	14492.8    	32.53840
691.0000      	14471.8    	32.35885
692.0000      	14450.9    	32.21430
693.0000      	14430    	32.22941
694.0000      	14409.2    	32.28322
695.0000      	14388.5    	32.20463
696.0000      	14367.8    	31.95907
697.0000      	14347.2    	31.62307
698.0000      	14326.6    	31.55276
699.0000      	14306.2    	31.41078
700.0000      	14285.7    	31.36569
701.0000      	14265.3    	31.12732
702.0000      	14245    	30.92332
703.0000      	14224.8    	30.82213
704.0000      	14204.5    	30.67438
705.0000      	14184.4    	30.63030
706.0000      	14164.3    	30.42460
707.0000      	14144.3    	30.10118
708.0000      	14124.3    	29.95829
709.0000      	14104.4    	29.83965
710.0000      	14084.5    	29.76205
711.0000      	14064.7    	29.63256
712.0000      	14044.9    	29.43171
713.0000      	14025.2    	29.42640
714.0000      	14005.6    	29.46929
715.0000      	13986    	29.56377
716.0000      	13966.5    	29.60734
717.0000      	13947    	29.73278
718.0000      	13927.6    	29.85198
719.0000      	13908.2    	30.08903
720.0000      	13888.9    	30.38319
721.0000      	13869.6    	30.65521
722.0000      	13850.4    	30.98027
723.0000      	13831.3    	31.09933
724.0000      	13812.2    	31.44756
725.0000      	13793.1    	31.63240
726.0000      	13774.1    	32.03970
727.0000      	13755.2    	32.38966
728.0000      	13736.3    	32.65260
729.0000      	13717.4    	33.14524
730.0000      	13698.6    	33.51899
731.0000      	13679.9    	33.80716
732.0000      	13661.2    	34.00161
733.0000      	13642.6    	34.59367
734.0000      	13624    	35.40193
735.0000      	13605.4    	36.20498
736.0000      	13587    	36.74445
737.0000      	13568.5    	37.13872
738.0000      	13550.1    	38.00716
739.0000      	13531.8    	38.78275
740.0000      	13513.5    	39.51501
741.0000      	13495.3    	40.41337
742.0000      	13477.1    	40.96365
743.0000      	13459    	42.23585
744.0000      	13440.9    	43.46638
745.0000      	13422.8    	44.70061
746.0000      	13404.8    	45.90756
747.0000      	13386.9    	46.62669
748.0000      	13369    	48.04707
749.0000      	13351.1    	49.31581
750.0000      	13333.3    	50.72259
751.0000      	13315.6    	51.49912
752.0000      	13297.9    	53.18807
753.0000      	13280.2    	55.22433
754.0000      	13262.6    	57.07410
755.0000      	13245    	58.76100
756.0000      	13227.5    	59.52383
757.0000      	13210    	61.17985
758.0000      	13192.6    	62.96241
759.0000      	13175.2    	64.63949
760.0000      	13157.9    	66.37737
761.0000      	13140.6    	67.18867
762.0000      	13123.4    	68.67074
763.0000      	13106.2    	70.01747
764.0000      	13089    	71.75054
765.0000      	13071.9    	72.45712
766.0000      	13054.8    	73.51797
767.0000      	13037.8    	73.99037
768.0000      	13020.8    	74.75841
769.0000      	13003.9    	75.80533
770.0000      	12987    	76.30033
771.0000      	12970.2    	77.04964
772.0000      	12953.4    	77.48474
773.0000      	12936.6    	77.98960
774.0000      	12919.9    	78.11990
775.0000      	12903.2    	78.22293
776.0000      	12886.6    	78.39001
777.0000      	12870    	78.98859
778.0000      	12853.5    	79.44494
779.0000      	12837    	79.84576
780.0000      	12820.5    	80.03749
781.0000      	12804.1    	80.03409
782.0000      	12787.7    	80.39706
783.0000      	12771.4    	81.04292
784.0000      	12755.1    	81.15802
785.0000      	12738.9    	81.49957
786.0000      	12722.6    	81.41029
787.0000      	12706.5    	81.41583
788.0000      	12690.4    	81.58453
789.0000      	12674.3    	81.53983
790.0000      	12658.2    	81.72161
791.0000      	12642.2    	81.47018
792.0000      	12626.3    	81.23422
793.0000      	12610.3    	81.10593
794.0000      	12594.5    	81.33572
795.0000      	12578.6    	81.85651
796.0000      	12562.8    	81.73028
797.0000      	12547.1    	81.79520
798.0000      	12531.3    	81.74460
799.0000      	12515.6    	81.87682
800.0000      	12500    	81.95446