File: data/Reflectance_measurements/Reflectance_2019_material/50_white/50_white_2 .txt
Unit Serial No : 240-IM0P2424-EU
Integration Time : 10 ms
Time Average: 10
Binning Average: 2
FFT Smoothing: 0%
Project Name : RPS900-R
Sample Name :  SM240-IMOP2424-EU
Measurement No : 1
Measurement Time : 06/03/2019   14:42:47

Wavelength(nm)	Wavenumber(1/cm)	Transmittance(%)
300.0000      	33333.3    	13.63656
301.0000      	33222.6    	13.05253
302.0000      	33112.6    	12.09227
303.0000      	33003.3    	12.06215
304.0000      	32894.7    	12.59157
305.0000      	32786.9    	12.04912
306.0000      	32679.7    	11.44612
307.0000      	32573.3    	10.74117
308.0000      	32467.5    	10.31048
309.0000      	32362.5    	10.71407
310.0000      	32258.1    	11.50713
311.0000      	32154.3    	11.17599
312.0000      	32051.3    	9.88260
313.0000      	31948.9    	9.91298
314.0000      	31847.1    	10.20880
315.0000      	31746    	9.97062
316.0000      	31645.6    	9.40325
317.0000      	31545.7    	8.58915
318.0000      	31446.5    	8.74568
319.0000      	31348    	7.79617
320.0000      	31250    	8.60542
321.0000      	31152.6    	8.88386
322.0000      	31055.9    	9.41265
323.0000      	30959.8    	8.74460
324.0000      	30864.2    	7.62687
325.0000      	30769.2    	7.86355
326.0000      	30674.8    	9.07557
327.0000      	30581    	9.48818
328.0000      	30487.8    	8.44123
329.0000      	30395.1    	7.60787
330.0000      	30303    	7.25933
331.0000      	30211.5    	7.63843
332.0000      	30120.5    	8.22978
333.0000      	30030    	8.18419
334.0000      	29940.1    	8.13685
335.0000      	29850.7    	7.59821
336.0000      	29761.9    	7.41083
337.0000      	29673.6    	7.52658
338.0000      	29585.8    	7.84076
339.0000      	29498.5    	7.48801
340.0000      	29411.8    	7.18074
341.0000      	29325.5    	7.37785
342.0000      	29239.8    	8.02344
343.0000      	29154.5    	8.07346
344.0000      	29069.8    	7.77212
345.0000      	28985.5    	7.60387
346.0000      	28901.7    	7.58648
347.0000      	28818.4    	7.57851
348.0000      	28735.6    	7.83973
349.0000      	28653.3    	8.01571
350.0000      	28571.4    	7.88357
351.0000      	28490    	7.49582
352.0000      	28409.1    	7.28756
353.0000      	28328.6    	7.64302
354.0000      	28248.6    	8.06910
355.0000      	28169    	7.80997
356.0000      	28089.9    	7.68906
357.0000      	28011.2    	7.62439
358.0000      	27933    	8.00371
359.0000      	27855.2    	8.34588
360.0000      	27777.8    	8.59174
361.0000      	27700.8    	8.60537
362.0000      	27624.3    	8.46412
363.0000      	27548.2    	8.49303
364.0000      	27472.5    	8.38745
365.0000      	27397.3    	8.48990
366.0000      	27322.4    	8.57447
367.0000      	27248    	8.49021
368.0000      	27173.9    	8.37715
369.0000      	27100.3    	8.66745
370.0000      	27027    	8.97331
371.0000      	26954.2    	9.02030
372.0000      	26881.7    	8.99965
373.0000      	26809.7    	9.00364
374.0000      	26738    	9.05401
375.0000      	26666.7    	9.27955
376.0000      	26595.7    	9.67817
377.0000      	26525.2    	9.87173
378.0000      	26455    	9.84363
379.0000      	26385.2    	10.01918
380.0000      	26315.8    	10.41809
381.0000      	26246.7    	10.74991
382.0000      	26178    	10.89484
383.0000      	26109.7    	11.05445
384.0000      	26041.7    	11.08214
385.0000      	25974    	11.15232
386.0000      	25906.7    	11.48173
387.0000      	25839.8    	12.01998
388.0000      	25773.2    	12.27584
389.0000      	25706.9    	12.35742
390.0000      	25641    	12.48339
391.0000      	25575.4    	12.79253
392.0000      	25510.2    	13.00984
393.0000      	25445.3    	13.35676
394.0000      	25380.7    	13.54746
395.0000      	25316.5    	13.68183
396.0000      	25252.5    	13.94526
397.0000      	25188.9    	14.40919
398.0000      	25125.6    	14.99040
399.0000      	25062.7    	15.31711
400.0000      	25000    	15.61791
401.0000      	24937.7    	15.97679
402.0000      	24875.6    	16.23551
403.0000      	24813.9    	16.61550
404.0000      	24752.5    	17.05099
405.0000      	24691.4    	17.45926
406.0000      	24630.5    	17.67835
407.0000      	24570    	18.07285
408.0000      	24509.8    	18.51357
409.0000      	24449.9    	19.03717
410.0000      	24390.2    	19.43366
411.0000      	24330.9    	19.66010
412.0000      	24271.8    	19.80904
413.0000      	24213.1    	20.21227
414.0000      	24154.6    	20.70551
415.0000      	24096.4    	21.01743
416.0000      	24038.5    	21.28075
417.0000      	23980.8    	21.42192
418.0000      	23923.4    	21.45526
419.0000      	23866.3    	21.68968
420.0000      	23809.5    	21.90685
421.0000      	23753    	22.08924
422.0000      	23696.7    	22.11507
423.0000      	23640.7    	22.22821
424.0000      	23584.9    	22.41386
425.0000      	23529.4    	22.67449
426.0000      	23474.2    	22.99724
427.0000      	23419.2    	23.14552
428.0000      	23364.5    	23.08647
429.0000      	23310    	23.10834
430.0000      	23255.8    	23.21557
431.0000      	23201.9    	23.46198
432.0000      	23148.1    	23.64517
433.0000      	23094.7    	23.84579
434.0000      	23041.5    	23.94304
435.0000      	22988.5    	24.16362
436.0000      	22935.8    	24.37396
437.0000      	22883.3    	24.70201
438.0000      	22831.1    	24.79278
439.0000      	22779    	24.86383
440.0000      	22727.3    	24.92425
441.0000      	22675.7    	24.99350
442.0000      	22624.4    	25.06790
443.0000      	22573.4    	25.17828
444.0000      	22522.5    	25.24433
445.0000      	22471.9    	25.25896
446.0000      	22421.5    	25.22349
447.0000      	22371.4    	25.33097
448.0000      	22321.4    	25.41615
449.0000      	22271.7    	25.38697
450.0000      	22222.2    	25.22443
451.0000      	22172.9    	25.17249
452.0000      	22123.9    	25.44444
453.0000      	22075.1    	25.71954
454.0000      	22026.4    	25.89787
455.0000      	21978    	25.90527
456.0000      	21929.8    	25.96266
457.0000      	21881.8    	26.03181
458.0000      	21834.1    	26.18706
459.0000      	21786.5    	26.44753
460.0000      	21739.1    	26.76062
461.0000      	21692    	26.91512
462.0000      	21645    	26.90657
463.0000      	21598.3    	26.89959
464.0000      	21551.7    	26.99561
465.0000      	21505.4    	27.31289
466.0000      	21459.2    	27.51768
467.0000      	21413.3    	27.61845
468.0000      	21367.5    	27.74201
469.0000      	21322    	27.96665
470.0000      	21276.6    	28.13478
471.0000      	21231.4    	28.32765
472.0000      	21186.4    	28.56567
473.0000      	21141.6    	28.82051
474.0000      	21097    	29.16549
475.0000      	21052.6    	29.37379
476.0000      	21008.4    	29.61280
477.0000      	20964.4    	29.86387
478.0000      	20920.5    	30.00816
479.0000      	20876.8    	30.28491
480.0000      	20833.3    	30.57947
481.0000      	20790    	30.90924
482.0000      	20746.9    	31.18447
483.0000      	20703.9    	31.44340
484.0000      	20661.2    	31.70189
485.0000      	20618.6    	31.83355
486.0000      	20576.1    	32.11400
487.0000      	20533.9    	32.42429
488.0000      	20491.8    	32.78424
489.0000      	20449.9    	33.13318
490.0000      	20408.2    	33.41595
491.0000      	20366.6    	33.72433
492.0000      	20325.2    	33.89132
493.0000      	20284    	34.21663
494.0000      	20242.9    	34.47556
495.0000      	20202    	34.59739
496.0000      	20161.3    	34.77483
497.0000      	20120.7    	34.93349
498.0000      	20080.3    	35.21787
499.0000      	20040.1    	35.34375
500.0000      	20000    	35.59887
501.0000      	19960.1    	35.68929
502.0000      	19920.3    	35.66460
503.0000      	19880.7    	35.66592
504.0000      	19841.3    	35.71383
505.0000      	19802    	35.67038
506.0000      	19762.8    	35.62396
507.0000      	19723.9    	35.48009
508.0000      	19685    	35.31831
509.0000      	19646.4    	35.11223
510.0000      	19607.8    	34.81556
511.0000      	19569.5    	34.45380
512.0000      	19531.2    	33.95473
513.0000      	19493.2    	33.65630
514.0000      	19455.3    	33.14108
515.0000      	19417.5    	32.62692
516.0000      	19379.8    	32.14459
517.0000      	19342.4    	31.52929
518.0000      	19305    	30.83550
519.0000      	19267.8    	30.47894
520.0000      	19230.8    	29.80155
521.0000      	19193.9    	29.13973
522.0000      	19157.1    	28.48565
523.0000      	19120.5    	27.85843
524.0000      	19084    	27.26319
525.0000      	19047.6    	26.59868
526.0000      	19011.4    	26.32710
527.0000      	18975.3    	25.85365
528.0000      	18939.4    	25.41827
529.0000      	18903.6    	25.01594
530.0000      	18867.9    	24.55563
531.0000      	18832.4    	24.14048
532.0000      	18797    	23.80599
533.0000      	18761.7    	23.69664
534.0000      	18726.6    	23.51385
535.0000      	18691.6    	23.31067
536.0000      	18656.7    	23.05559
537.0000      	18622    	22.87062
538.0000      	18587.4    	22.83306
539.0000      	18552.9    	22.82853
540.0000      	18518.5    	22.82426
541.0000      	18484.3    	22.72528
542.0000      	18450.2    	22.65763
543.0000      	18416.2    	22.67907
544.0000      	18382.4    	22.69682
545.0000      	18348.6    	22.71994
546.0000      	18315    	22.67592
547.0000      	18281.5    	22.62079
548.0000      	18248.2    	22.47438
549.0000      	18214.9    	22.29802
550.0000      	18181.8    	22.26667
551.0000      	18148.8    	22.22800
552.0000      	18115.9    	22.03349
553.0000      	18083.2    	21.76000
554.0000      	18050.5    	21.50226
555.0000      	18018    	21.21455
556.0000      	17985.6    	20.87911
557.0000      	17953.3    	20.49144
558.0000      	17921.1    	20.28025
559.0000      	17889.1    	19.82557
560.0000      	17857.1    	19.45561
561.0000      	17825.3    	19.16465
562.0000      	17793.6    	18.84997
563.0000      	17762    	18.48093
564.0000      	17730.5    	18.27803
565.0000      	17699.1    	17.93942
566.0000      	17667.8    	17.75694
567.0000      	17636.7    	17.67783
568.0000      	17605.6    	17.60730
569.0000      	17574.7    	17.51708
570.0000      	17543.9    	17.47930
571.0000      	17513.1    	17.40590
572.0000      	17482.5    	17.49439
573.0000      	17452    	17.71435
574.0000      	17421.6    	18.01315
575.0000      	17391.3    	18.15104
576.0000      	17361.1    	18.45158
577.0000      	17331    	18.74784
578.0000      	17301    	19.09145
579.0000      	17271.2    	19.64721
580.0000      	17241.4    	20.23880
581.0000      	17211.7    	20.52415
582.0000      	17182.1    	21.04259
583.0000      	17152.7    	21.60459
584.0000      	17123.3    	22.22714
585.0000      	17094    	22.83121
586.0000      	17064.8    	23.38997
587.0000      	17035.8    	23.65722
588.0000      	17006.8    	24.16510
589.0000      	16977.9    	24.73416
590.0000      	16949.2    	25.30417
591.0000      	16920.5    	25.73939
592.0000      	16891.9    	26.08641
593.0000      	16863.4    	26.26563
594.0000      	16835    	26.49427
595.0000      	16806.7    	26.73569
596.0000      	16778.5    	26.90863
597.0000      	16750.4    	27.15169
598.0000      	16722.4    	27.29050
599.0000      	16694.5    	27.30899
600.0000      	16666.7    	27.34240
601.0000      	16638.9    	27.30675
602.0000      	16611.3    	27.31496
603.0000      	16583.7    	27.33664
604.0000      	16556.3    	27.32943
605.0000      	16528.9    	27.31631
606.0000      	16501.7    	27.30863
607.0000      	16474.5    	27.24914
608.0000      	16447.4    	27.20729
609.0000      	16420.4    	27.26880
610.0000      	16393.4    	27.27858
611.0000      	16366.6    	27.28721
612.0000      	16339.9    	27.26287
613.0000      	16313.2    	27.20656
614.0000      	16286.6    	27.22233
615.0000      	16260.2    	27.24197
616.0000      	16233.8    	27.29712
617.0000      	16207.5    	27.31331
618.0000      	16181.2    	27.28942
619.0000      	16155.1    	27.29521
620.0000      	16129    	27.32456
621.0000      	16103.1    	27.30678
622.0000      	16077.2    	27.27309
623.0000      	16051.4    	27.17742
624.0000      	16025.6    	27.16684
625.0000      	16000    	27.24525
626.0000      	15974.4    	27.32935
627.0000      	15949    	27.43547
628.0000      	15923.6    	27.53144
629.0000      	15898.3    	27.63104
630.0000      	15873    	27.63017
631.0000      	15847.9    	27.69455
632.0000      	15822.8    	27.76511
633.0000      	15797.8    	27.89889
634.0000      	15772.9    	27.91901
635.0000      	15748    	27.93625
636.0000      	15723.3    	27.96169
637.0000      	15698.6    	28.01146
638.0000      	15674    	28.14345
639.0000      	15649.5    	28.30231
640.0000      	15625    	28.48934
641.0000      	15600.6    	28.66306
642.0000      	15576.3    	28.77968
643.0000      	15552.1    	29.07125
644.0000      	15528    	29.29492
645.0000      	15503.9    	29.47522
646.0000      	15479.9    	29.70402
647.0000      	15456    	29.83386
648.0000      	15432.1    	30.10284
649.0000      	15408.3    	30.33136
650.0000      	15384.6    	30.63619
651.0000      	15361    	30.80243
652.0000      	15337.4    	31.07943
653.0000      	15313.9    	31.20332
654.0000      	15290.5    	31.53368
655.0000      	15267.2    	31.86318
656.0000      	15243.9    	32.18113
657.0000      	15220.7    	32.49339
658.0000      	15197.6    	32.66840
659.0000      	15174.5    	32.93976
660.0000      	15151.5    	33.32658
661.0000      	15128.6    	33.60839
662.0000      	15105.7    	33.85181
663.0000      	15083    	33.91972
664.0000      	15060.2    	34.07794
665.0000      	15037.6    	34.30743
666.0000      	15015    	34.64222
667.0000      	14992.5    	34.83921
668.0000      	14970.1    	34.88770
669.0000      	14947.7    	34.86087
670.0000      	14925.4    	34.76140
671.0000      	14903.1    	34.85592
672.0000      	14881    	34.95813
673.0000      	14858.8    	35.04905
674.0000      	14836.8    	34.98381
675.0000      	14814.8    	34.85359
676.0000      	14792.9    	34.71514
677.0000      	14771    	34.66829
678.0000      	14749.3    	34.66318
679.0000      	14727.5    	34.68524
680.0000      	14705.9    	34.62473
681.0000      	14684.3    	34.49255
682.0000      	14662.8    	34.30621
683.0000      	14641.3    	34.22656
684.0000      	14619.9    	34.14035
685.0000      	14598.5    	34.05599
686.0000      	14577.3    	33.82440
687.0000      	14556    	33.52634
688.0000      	14534.9    	33.46298
689.0000      	14513.8    	33.34000
690.0000      	14492.8    	33.27078
691.0000      	14471.8    	33.16223
692.0000      	14450.9    	32.96806
693.0000      	14430    	32.89067
694.0000      	14409.2    	32.71780
695.0000      	14388.5    	32.56982
696.0000      	14367.8    	32.46537
697.0000      	14347.2    	32.25035
698.0000      	14326.6    	32.15426
699.0000      	14306.2    	31.89970
700.0000      	14285.7    	31.77942
701.0000      	14265.3    	31.74681
702.0000      	14245    	31.75268
703.0000      	14224.8    	31.64735
704.0000      	14204.5    	31.39060
705.0000      	14184.4    	31.18440
706.0000      	14164.3    	30.93758
707.0000      	14144.3    	30.79628
708.0000      	14124.3    	30.71489
709.0000      	14104.4    	30.60887
710.0000      	14084.5    	30.40999
711.0000      	14064.7    	30.34558
712.0000      	14044.9    	30.21189
713.0000      	14025.2    	30.22132
714.0000      	14005.6    	30.21949
715.0000      	13986    	30.26828
716.0000      	13966.5    	30.25614
717.0000      	13947    	30.29481
718.0000      	13927.6    	30.43709
719.0000      	13908.2    	30.82415
720.0000      	13888.9    	31.12838
721.0000      	13869.6    	31.39171
722.0000      	13850.4    	31.57320
723.0000      	13831.3    	31.71221
724.0000      	13812.2    	32.06558
725.0000      	13793.1    	32.55132
726.0000      	13774.1    	33.12223
727.0000      	13755.2    	33.36099
728.0000      	13736.3    	33.44829
729.0000      	13717.4    	33.85300
730.0000      	13698.6    	34.40079
731.0000      	13679.9    	34.88835
732.0000      	13661.2    	35.10936
733.0000      	13642.6    	35.65138
734.0000      	13624    	36.15893
735.0000      	13605.4    	36.62567
736.0000      	13587    	37.21992
737.0000      	13568.5    	37.64846
738.0000      	13550.1    	38.64056
739.0000      	13531.8    	39.52305
740.0000      	13513.5    	40.39190
741.0000      	13495.3    	41.21859
742.0000      	13477.1    	41.75720
743.0000      	13459    	43.07464
744.0000      	13440.9    	44.42334
745.0000      	13422.8    	45.62915
746.0000      	13404.8    	46.90489
747.0000      	13386.9    	47.52921
748.0000      	13369    	48.94121
749.0000      	13351.1    	50.29943
750.0000      	13333.3    	52.05548
751.0000      	13315.6    	52.90335
752.0000      	13297.9    	54.50048
753.0000      	13280.2    	56.39239
754.0000      	13262.6    	58.34589
755.0000      	13245    	60.18391
756.0000      	13227.5    	61.00433
757.0000      	13210    	62.65377
758.0000      	13192.6    	64.24355
759.0000      	13175.2    	66.19212
760.0000      	13157.9    	68.18375
761.0000      	13140.6    	69.05414
762.0000      	13123.4    	70.49753
763.0000      	13106.2    	71.83935
764.0000      	13089    	73.20316
765.0000      	13071.9    	73.86516
766.0000      	13054.8    	75.03043
767.0000      	13037.8    	76.20818
768.0000      	13020.8    	77.20443
769.0000      	13003.9    	77.95780
770.0000      	12987    	78.28772
771.0000      	12970.2    	79.04469
772.0000      	12953.4    	79.71581
773.0000      	12936.6    	80.36624
774.0000      	12919.9    	80.68737
775.0000      	12903.2    	80.86832
776.0000      	12886.6    	80.85957
777.0000      	12870    	81.29086
778.0000      	12853.5    	81.92532
779.0000      	12837    	82.34180
780.0000      	12820.5    	82.23602
781.0000      	12804.1    	81.92294
782.0000      	12787.7    	82.26826
783.0000      	12771.4    	82.87508
784.0000      	12755.1    	83.19405
785.0000      	12738.9    	83.53940
786.0000      	12722.6    	83.79408
787.0000      	12706.5    	83.77290
788.0000      	12690.4    	84.05291
789.0000      	12674.3    	84.24033
790.0000      	12658.2    	84.51183
791.0000      	12642.2    	84.21567
792.0000      	12626.3    	83.83401
793.0000      	12610.3    	83.57903
794.0000      	12594.5    	83.50686
795.0000      	12578.6    	83.90350
796.0000      	12562.8    	84.43037
797.0000      	12547.1    	84.51748
798.0000      	12531.3    	84.35515
799.0000      	12515.6    	84.08060
800.0000      	12500    	84.13919