File: data/Reflectance_measurements/Reflectance_2019_material/25_white/25_white_1.txt
Unit Serial No : 240-IM0P2424-EU
Integration Time : 10 ms
Time Average: 10
Binning Average: 2
FFT Smoothing: 0%
Project Name : RPS900-R
Sample Name :  SM240-IMOP2424-EU
Measurement No : 1
Measurement Time : 06/03/2019   14:50:23

Wavelength(nm)	Wavenumber(1/cm)	Transmittance(%)
300.0000      	33333.3    	14.67876
301.0000      	33222.6    	15.74299
302.0000      	33112.6    	15.75493
303.0000      	33003.3    	15.36450
304.0000      	32894.7    	14.11494
305.0000      	32786.9    	12.57489
306.0000      	32679.7    	12.65079
307.0000      	32573.3    	12.97204
308.0000      	32467.5    	13.71917
309.0000      	32362.5    	11.75192
310.0000      	32258.1    	11.11127
311.0000      	32154.3    	10.69749
312.0000      	32051.3    	10.65064
313.0000      	31948.9    	11.02259
314.0000      	31847.1    	11.46281
315.0000      	31746    	11.28483
316.0000      	31645.6    	11.53989
317.0000      	31545.7    	11.48834
318.0000      	31446.5    	10.83989
319.0000      	31348    	10.15176
320.0000      	31250    	9.53422
321.0000      	31152.6    	8.73354
322.0000      	31055.9    	9.05463
323.0000      	30959.8    	9.69454
324.0000      	30864.2    	9.43409
325.0000      	30769.2    	9.02363
326.0000      	30674.8    	9.12182
327.0000      	30581    	9.44671
328.0000      	30487.8    	9.48402
329.0000      	30395.1    	9.70474
330.0000      	30303    	9.28262
331.0000      	30211.5    	8.91055
332.0000      	30120.5    	8.84316
333.0000      	30030    	8.86530
334.0000      	29940.1    	9.14857
335.0000      	29850.7    	8.89824
336.0000      	29761.9    	8.46530
337.0000      	29673.6    	8.27746
338.0000      	29585.8    	8.46687
339.0000      	29498.5    	8.58698
340.0000      	29411.8    	8.57305
341.0000      	29325.5    	8.54006
342.0000      	29239.8    	8.87052
343.0000      	29154.5    	8.96710
344.0000      	29069.8    	9.08471
345.0000      	28985.5    	9.21452
346.0000      	28901.7    	9.26963
347.0000      	28818.4    	9.16147
348.0000      	28735.6    	9.16827
349.0000      	28653.3    	9.16616
350.0000      	28571.4    	9.43435
351.0000      	28490    	9.58523
352.0000      	28409.1    	9.51600
353.0000      	28328.6    	9.61413
354.0000      	28248.6    	9.83020
355.0000      	28169    	10.08104
356.0000      	28089.9    	10.59303
357.0000      	28011.2    	10.80750
358.0000      	27933    	11.03158
359.0000      	27855.2    	11.16659
360.0000      	27777.8    	11.28275
361.0000      	27700.8    	11.47322
362.0000      	27624.3    	11.77711
363.0000      	27548.2    	11.71011
364.0000      	27472.5    	11.46444
365.0000      	27397.3    	11.68553
366.0000      	27322.4    	12.22101
367.0000      	27248    	12.61419
368.0000      	27173.9    	12.73551
369.0000      	27100.3    	12.84192
370.0000      	27027    	13.10065
371.0000      	26954.2    	13.23120
372.0000      	26881.7    	13.59108
373.0000      	26809.7    	13.84557
374.0000      	26738    	14.13657
375.0000      	26666.7    	14.45329
376.0000      	26595.7    	14.91350
377.0000      	26525.2    	15.38635
378.0000      	26455    	15.78496
379.0000      	26385.2    	16.19366
380.0000      	26315.8    	16.61269
381.0000      	26246.7    	16.99873
382.0000      	26178    	17.14830
383.0000      	26109.7    	17.67094
384.0000      	26041.7    	18.15215
385.0000      	25974    	18.59890
386.0000      	25906.7    	18.78805
387.0000      	25839.8    	19.22434
388.0000      	25773.2    	19.62562
389.0000      	25706.9    	20.28312
390.0000      	25641    	20.92296
391.0000      	25575.4    	21.22564
392.0000      	25510.2    	21.39419
393.0000      	25445.3    	21.95343
394.0000      	25380.7    	22.67663
395.0000      	25316.5    	23.16222
396.0000      	25252.5    	23.61934
397.0000      	25188.9    	24.10253
398.0000      	25125.6    	24.94270
399.0000      	25062.7    	25.77443
400.0000      	25000    	26.49967
401.0000      	24937.7    	27.18083
402.0000      	24875.6    	27.67024
403.0000      	24813.9    	28.56232
404.0000      	24752.5    	29.41262
405.0000      	24691.4    	30.33947
406.0000      	24630.5    	31.38529
407.0000      	24570    	32.49797
408.0000      	24509.8    	33.45705
409.0000      	24449.9    	34.46174
410.0000      	24390.2    	35.56754
411.0000      	24330.9    	36.75259
412.0000      	24271.8    	37.35433
413.0000      	24213.1    	38.55951
414.0000      	24154.6    	39.45606
415.0000      	24096.4    	40.20374
416.0000      	24038.5    	40.95401
417.0000      	23980.8    	41.58367
418.0000      	23923.4    	41.96771
419.0000      	23866.3    	42.30974
420.0000      	23809.5    	42.67945
421.0000      	23753    	42.99155
422.0000      	23696.7    	43.61855
423.0000      	23640.7    	44.10622
424.0000      	23584.9    	44.34732
425.0000      	23529.4    	44.59975
426.0000      	23474.2    	44.98510
427.0000      	23419.2    	45.37621
428.0000      	23364.5    	45.71966
429.0000      	23310    	45.95673
430.0000      	23255.8    	46.15065
431.0000      	23201.9    	46.60360
432.0000      	23148.1    	47.20593
433.0000      	23094.7    	47.58550
434.0000      	23041.5    	47.80374
435.0000      	22988.5    	48.10768
436.0000      	22935.8    	48.48611
437.0000      	22883.3    	48.81400
438.0000      	22831.1    	48.82442
439.0000      	22779    	48.86371
440.0000      	22727.3    	49.05024
441.0000      	22675.7    	49.24483
442.0000      	22624.4    	49.33687
443.0000      	22573.4    	49.53731
444.0000      	22522.5    	49.58535
445.0000      	22471.9    	49.41289
446.0000      	22421.5    	49.24345
447.0000      	22371.4    	48.97904
448.0000      	22321.4    	48.75066
449.0000      	22271.7    	48.51543
450.0000      	22222.2    	48.22086
451.0000      	22172.9    	48.02868
452.0000      	22123.9    	48.27554
453.0000      	22075.1    	48.44973
454.0000      	22026.4    	48.59353
455.0000      	21978    	48.63638
456.0000      	21929.8    	48.78820
457.0000      	21881.8    	48.82657
458.0000      	21834.1    	48.82203
459.0000      	21786.5    	48.88535
460.0000      	21739.1    	48.99865
461.0000      	21692    	49.05092
462.0000      	21645    	49.04052
463.0000      	21598.3    	49.17054
464.0000      	21551.7    	49.29785
465.0000      	21505.4    	49.42533
466.0000      	21459.2    	49.45662
467.0000      	21413.3    	49.54036
468.0000      	21367.5    	49.77718
469.0000      	21322    	50.10231
470.0000      	21276.6    	50.25057
471.0000      	21231.4    	50.34840
472.0000      	21186.4    	50.51312
473.0000      	21141.6    	50.80712
474.0000      	21097    	51.15163
475.0000      	21052.6    	51.45513
476.0000      	21008.4    	51.72052
477.0000      	20964.4    	51.89465
478.0000      	20920.5    	51.97390
479.0000      	20876.8    	52.07846
480.0000      	20833.3    	52.27315
481.0000      	20790    	52.55657
482.0000      	20746.9    	52.82878
483.0000      	20703.9    	53.03610
484.0000      	20661.2    	53.29717
485.0000      	20618.6    	53.43323
486.0000      	20576.1    	53.64132
487.0000      	20533.9    	53.81525
488.0000      	20491.8    	54.06492
489.0000      	20449.9    	54.38485
490.0000      	20408.2    	54.54855
491.0000      	20366.6    	54.77129
492.0000      	20325.2    	54.90852
493.0000      	20284    	55.21286
494.0000      	20242.9    	55.40971
495.0000      	20202    	55.53973
496.0000      	20161.3    	55.71091
497.0000      	20120.7    	55.91726
498.0000      	20080.3    	56.16017
499.0000      	20040.1    	56.26051
500.0000      	20000    	56.33598
501.0000      	19960.1    	56.33073
502.0000      	19920.3    	56.39767
503.0000      	19880.7    	56.50745
504.0000      	19841.3    	56.54979
505.0000      	19802    	56.40902
506.0000      	19762.8    	56.28862
507.0000      	19723.9    	56.07114
508.0000      	19685    	55.89484
509.0000      	19646.4    	55.66293
510.0000      	19607.8    	55.35250
511.0000      	19569.5    	55.08804
512.0000      	19531.2    	54.69029
513.0000      	19493.2    	54.44139
514.0000      	19455.3    	54.00505
515.0000      	19417.5    	53.55284
516.0000      	19379.8    	53.04035
517.0000      	19342.4    	52.42607
518.0000      	19305    	51.82229
519.0000      	19267.8    	51.51327
520.0000      	19230.8    	50.88548
521.0000      	19193.9    	50.20135
522.0000      	19157.1    	49.57302
523.0000      	19120.5    	49.01964
524.0000      	19084    	48.46549
525.0000      	19047.6    	47.82380
526.0000      	19011.4    	47.53149
527.0000      	18975.3    	47.01313
528.0000      	18939.4    	46.59719
529.0000      	18903.6    	46.21588
530.0000      	18867.9    	45.80541
531.0000      	18832.4    	45.37533
532.0000      	18797    	45.03242
533.0000      	18761.7    	44.88891
534.0000      	18726.6    	44.64256
535.0000      	18691.6    	44.39848
536.0000      	18656.7    	44.16092
537.0000      	18622    	43.96233
538.0000      	18587.4    	43.83597
539.0000      	18552.9    	43.76185
540.0000      	18518.5    	43.68520
541.0000      	18484.3    	43.68742
542.0000      	18450.2    	43.74087
543.0000      	18416.2    	43.73349
544.0000      	18382.4    	43.66048
545.0000      	18348.6    	43.61736
546.0000      	18315    	43.47169
547.0000      	18281.5    	43.38532
548.0000      	18248.2    	43.27084
549.0000      	18214.9    	43.17227
550.0000      	18181.8    	43.05732
551.0000      	18148.8    	42.93282
552.0000      	18115.9    	42.52922
553.0000      	18083.2    	42.11104
554.0000      	18050.5    	41.72525
555.0000      	18018    	41.34098
556.0000      	17985.6    	40.93222
557.0000      	17953.3    	40.48456
558.0000      	17921.1    	40.24574
559.0000      	17889.1    	39.73207
560.0000      	17857.1    	39.28810
561.0000      	17825.3    	38.83182
562.0000      	17793.6    	38.37624
563.0000      	17762    	37.94653
564.0000      	17730.5    	37.72079
565.0000      	17699.1    	37.24751
566.0000      	17667.8    	36.89688
567.0000      	17636.7    	36.65640
568.0000      	17605.6    	36.44090
569.0000      	17574.7    	36.27592
570.0000      	17543.9    	36.24191
571.0000      	17513.1    	36.21997
572.0000      	17482.5    	36.23615
573.0000      	17452    	36.31139
574.0000      	17421.6    	36.62854
575.0000      	17391.3    	36.81485
576.0000      	17361.1    	37.23263
577.0000      	17331    	37.66969
578.0000      	17301    	38.20249
579.0000      	17271.2    	38.76796
580.0000      	17241.4    	39.45642
581.0000      	17211.7    	39.84367
582.0000      	17182.1    	40.70056
583.0000      	17152.7    	41.38939
584.0000      	17123.3    	42.06626
585.0000      	17094    	42.78860
586.0000      	17064.8    	43.50333
587.0000      	17035.8    	43.85085
588.0000      	17006.8    	44.49039
589.0000      	16977.9    	45.06405
590.0000      	16949.2    	45.59585
591.0000      	16920.5    	46.09533
592.0000      	16891.9    	46.47523
593.0000      	16863.4    	46.68972
594.0000      	16835    	46.94958
595.0000      	16806.7    	47.25026
596.0000      	16778.5    	47.33727
597.0000      	16750.4    	47.50586
598.0000      	16722.4    	47.69197
599.0000      	16694.5    	47.76733
600.0000      	16666.7    	47.88734
601.0000      	16638.9    	47.94810
602.0000      	16611.3    	48.03906
603.0000      	16583.7    	48.03337
604.0000      	16556.3    	47.96113
605.0000      	16528.9    	47.88193
606.0000      	16501.7    	47.97985
607.0000      	16474.5    	47.97346
608.0000      	16447.4    	47.78211
609.0000      	16420.4    	47.78677
610.0000      	16393.4    	47.78442
611.0000      	16366.6    	47.92390
612.0000      	16339.9    	47.92945
613.0000      	16313.2    	47.94123
614.0000      	16286.6    	47.92392
615.0000      	16260.2    	47.88215
616.0000      	16233.8    	47.81610
617.0000      	16207.5    	47.77774
618.0000      	16181.2    	47.71561
619.0000      	16155.1    	47.82165
620.0000      	16129    	47.89038
621.0000      	16103.1    	47.89106
622.0000      	16077.2    	47.71061
623.0000      	16051.4    	47.66421
624.0000      	16025.6    	47.70512
625.0000      	16000    	47.78411
626.0000      	15974.4    	47.78907
627.0000      	15949    	47.80557
628.0000      	15923.6    	47.90779
629.0000      	15898.3    	48.05622
630.0000      	15873    	48.12913
631.0000      	15847.9    	48.26133
632.0000      	15822.8    	48.37487
633.0000      	15797.8    	48.50318
634.0000      	15772.9    	48.64665
635.0000      	15748    	48.88533
636.0000      	15723.3    	49.04859
637.0000      	15698.6    	49.19307
638.0000      	15674    	49.22495
639.0000      	15649.5    	49.31688
640.0000      	15625    	49.47615
641.0000      	15600.6    	49.69005
642.0000      	15576.3    	49.84105
643.0000      	15552.1    	50.22527
644.0000      	15528    	50.67299
645.0000      	15503.9    	50.98085
646.0000      	15479.9    	51.25904
647.0000      	15456    	51.37115
648.0000      	15432.1    	51.66799
649.0000      	15408.3    	51.96404
650.0000      	15384.6    	52.38819
651.0000      	15361    	52.81044
652.0000      	15337.4    	53.21878
653.0000      	15313.9    	53.38629
654.0000      	15290.5    	53.78836
655.0000      	15267.2    	54.23142
656.0000      	15243.9    	54.62666
657.0000      	15220.7    	54.85086
658.0000      	15197.6    	55.02591
659.0000      	15174.5    	55.28143
660.0000      	15151.5    	55.72451
661.0000      	15128.6    	55.99444
662.0000      	15105.7    	56.42492
663.0000      	15083    	56.55347
664.0000      	15060.2    	56.80490
665.0000      	15037.6    	57.05723
666.0000      	15015    	57.25752
667.0000      	14992.5    	57.34980
668.0000      	14970.1    	57.40233
669.0000      	14947.7    	57.55407
670.0000      	14925.4    	57.56925
671.0000      	14903.1    	57.63839
672.0000      	14881    	57.73223
673.0000      	14858.8    	57.80979
674.0000      	14836.8    	57.75910
675.0000      	14814.8    	57.65738
676.0000      	14792.9    	57.42312
677.0000      	14771    	57.28670
678.0000      	14749.3    	57.25994
679.0000      	14727.5    	57.31330
680.0000      	14705.9    	57.18926
681.0000      	14684.3    	57.07068
682.0000      	14662.8    	56.92994
683.0000      	14641.3    	56.77357
684.0000      	14619.9    	56.55817
685.0000      	14598.5    	56.37946
686.0000      	14577.3    	56.23545
687.0000      	14556    	55.97646
688.0000      	14534.9    	55.86972
689.0000      	14513.8    	55.77768
690.0000      	14492.8    	55.79485
691.0000      	14471.8    	55.67841
692.0000      	14450.9    	55.44231
693.0000      	14430    	55.37568
694.0000      	14409.2    	55.33857
695.0000      	14388.5    	55.22266
696.0000      	14367.8    	55.07620
697.0000      	14347.2    	54.98871
698.0000      	14326.6    	54.97733
699.0000      	14306.2    	54.81850
700.0000      	14285.7    	54.74624
701.0000      	14265.3    	54.72028
702.0000      	14245    	54.66493
703.0000      	14224.8    	54.58912
704.0000      	14204.5    	54.36346
705.0000      	14184.4    	54.26413
706.0000      	14164.3    	54.02264
707.0000      	14144.3    	53.90522
708.0000      	14124.3    	53.80949
709.0000      	14104.4    	53.65160
710.0000      	14084.5    	53.59763
711.0000      	14064.7    	53.65875
712.0000      	14044.9    	53.50297
713.0000      	14025.2    	53.46524
714.0000      	14005.6    	53.30153
715.0000      	13986    	53.37226
716.0000      	13966.5    	53.42448
717.0000      	13947    	53.56363
718.0000      	13927.6    	53.62016
719.0000      	13908.2    	53.77428
720.0000      	13888.9    	53.94415
721.0000      	13869.6    	54.31973
722.0000      	13850.4    	54.73697
723.0000      	13831.3    	54.94234
724.0000      	13812.2    	55.27177
725.0000      	13793.1    	55.51269
726.0000      	13774.1    	55.82483
727.0000      	13755.2    	56.04404
728.0000      	13736.3    	56.21693
729.0000      	13717.4    	56.52441
730.0000      	13698.6    	56.88392
731.0000      	13679.9    	57.42881
732.0000      	13661.2    	57.60531
733.0000      	13642.6    	58.07787
734.0000      	13624    	58.57858
735.0000      	13605.4    	59.11987
736.0000      	13587    	59.52919
737.0000      	13568.5    	59.87856
738.0000      	13550.1    	60.67676
739.0000      	13531.8    	61.33470
740.0000      	13513.5    	61.79613
741.0000      	13495.3    	62.41442
742.0000      	13477.1    	62.78668
743.0000      	13459    	63.80238
744.0000      	13440.9    	64.80210
745.0000      	13422.8    	65.67234
746.0000      	13404.8    	66.55248
747.0000      	13386.9    	67.08788
748.0000      	13369    	68.25225
749.0000      	13351.1    	69.16379
750.0000      	13333.3    	70.15282
751.0000      	13315.6    	70.63548
752.0000      	13297.9    	71.56246
753.0000      	13280.2    	72.71103
754.0000      	13262.6    	73.87708
755.0000      	13245    	74.78340
756.0000      	13227.5    	75.19873
757.0000      	13210    	76.14001
758.0000      	13192.6    	77.10325
759.0000      	13175.2    	77.94868
760.0000      	13157.9    	78.98932
761.0000      	13140.6    	79.51875
762.0000      	13123.4    	80.40444
763.0000      	13106.2    	81.01583
764.0000      	13089    	81.46387
765.0000      	13071.9    	81.54294
766.0000      	13054.8    	81.81286
767.0000      	13037.8    	82.21332
768.0000      	13020.8    	82.62682
769.0000      	13003.9    	82.94475
770.0000      	12987    	83.05761
771.0000      	12970.2    	83.40783
772.0000      	12953.4    	83.70487
773.0000      	12936.6    	84.05236
774.0000      	12919.9    	84.19062
775.0000      	12903.2    	84.21548
776.0000      	12886.6    	84.15505
777.0000      	12870    	84.52664
778.0000      	12853.5    	84.54045
779.0000      	12837    	84.82029
780.0000      	12820.5    	84.54601
781.0000      	12804.1    	84.70589
782.0000      	12787.7    	84.81818
783.0000      	12771.4    	85.14241
784.0000      	12755.1    	85.07162
785.0000      	12738.9    	85.06573
786.0000      	12722.6    	85.14440
787.0000      	12706.5    	85.02510
788.0000      	12690.4    	85.31320
789.0000      	12674.3    	85.05378
790.0000      	12658.2    	85.74571
791.0000      	12642.2    	85.43141
792.0000      	12626.3    	85.15577
793.0000      	12610.3    	84.93756
794.0000      	12594.5    	85.05709
795.0000      	12578.6    	85.23422
796.0000      	12562.8    	85.29975
797.0000      	12547.1    	85.52366
798.0000      	12531.3    	85.58125
799.0000      	12515.6    	85.47552
800.0000      	12500    	85.48499