File: data/Reflectance_measurements/Reflectance_2019_material/25_white/25_white_2.txt
Unit Serial No : 240-IM0P2424-EU
Integration Time : 10 ms
Time Average: 10
Binning Average: 2
FFT Smoothing: 0%
Project Name : RPS900-R
Sample Name :  SM240-IMOP2424-EU
Measurement No : 1
Measurement Time : 06/03/2019   14:50:37

Wavelength(nm)	Wavenumber(1/cm)	Transmittance(%)
300.0000      	33333.3    	15.11194
301.0000      	33222.6    	14.37634
302.0000      	33112.6    	14.07294
303.0000      	33003.3    	15.39695
304.0000      	32894.7    	15.73308
305.0000      	32786.9    	14.34261
306.0000      	32679.7    	12.63914
307.0000      	32573.3    	11.52430
308.0000      	32467.5    	12.09847
309.0000      	32362.5    	11.80514
310.0000      	32258.1    	12.43984
311.0000      	32154.3    	12.33712
312.0000      	32051.3    	11.52047
313.0000      	31948.9    	10.79817
314.0000      	31847.1    	11.00042
315.0000      	31746    	11.24504
316.0000      	31645.6    	11.57704
317.0000      	31545.7    	10.95058
318.0000      	31446.5    	10.38070
319.0000      	31348    	9.82105
320.0000      	31250    	9.71348
321.0000      	31152.6    	9.46800
322.0000      	31055.9    	9.76519
323.0000      	30959.8    	9.75078
324.0000      	30864.2    	8.98912
325.0000      	30769.2    	8.67768
326.0000      	30674.8    	8.96602
327.0000      	30581    	9.20743
328.0000      	30487.8    	9.04959
329.0000      	30395.1    	8.81984
330.0000      	30303    	8.58356
331.0000      	30211.5    	8.92188
332.0000      	30120.5    	9.34174
333.0000      	30030    	9.13529
334.0000      	29940.1    	9.24012
335.0000      	29850.7    	9.05695
336.0000      	29761.9    	8.89187
337.0000      	29673.6    	8.93502
338.0000      	29585.8    	9.19853
339.0000      	29498.5    	9.02155
340.0000      	29411.8    	8.66731
341.0000      	29325.5    	8.54505
342.0000      	29239.8    	8.98480
343.0000      	29154.5    	9.05344
344.0000      	29069.8    	8.99579
345.0000      	28985.5    	8.92232
346.0000      	28901.7    	8.90221
347.0000      	28818.4    	8.87680
348.0000      	28735.6    	9.26149
349.0000      	28653.3    	9.61371
350.0000      	28571.4    	9.70925
351.0000      	28490    	9.49989
352.0000      	28409.1    	9.47912
353.0000      	28328.6    	9.92352
354.0000      	28248.6    	10.36180
355.0000      	28169    	10.31702
356.0000      	28089.9    	10.49030
357.0000      	28011.2    	10.46941
358.0000      	27933    	10.91569
359.0000      	27855.2    	11.32162
360.0000      	27777.8    	11.80100
361.0000      	27700.8    	12.02470
362.0000      	27624.3    	12.04448
363.0000      	27548.2    	12.14548
364.0000      	27472.5    	12.14708
365.0000      	27397.3    	12.41405
366.0000      	27322.4    	12.74234
367.0000      	27248    	12.94592
368.0000      	27173.9    	13.15958
369.0000      	27100.3    	13.50247
370.0000      	27027    	13.78128
371.0000      	26954.2    	13.90516
372.0000      	26881.7    	14.07880
373.0000      	26809.7    	14.16625
374.0000      	26738    	14.45461
375.0000      	26666.7    	14.93744
376.0000      	26595.7    	15.40511
377.0000      	26525.2    	15.67058
378.0000      	26455    	15.94406
379.0000      	26385.2    	16.29682
380.0000      	26315.8    	16.87992
381.0000      	26246.7    	17.52840
382.0000      	26178    	17.85679
383.0000      	26109.7    	18.16975
384.0000      	26041.7    	18.41342
385.0000      	25974    	18.74569
386.0000      	25906.7    	19.33791
387.0000      	25839.8    	19.95259
388.0000      	25773.2    	20.32901
389.0000      	25706.9    	20.66739
390.0000      	25641    	21.13398
391.0000      	25575.4    	21.59376
392.0000      	25510.2    	21.86427
393.0000      	25445.3    	22.38107
394.0000      	25380.7    	22.84314
395.0000      	25316.5    	23.38824
396.0000      	25252.5    	24.05022
397.0000      	25188.9    	24.72744
398.0000      	25125.6    	25.29308
399.0000      	25062.7    	25.98680
400.0000      	25000    	26.82722
401.0000      	24937.7    	27.58653
402.0000      	24875.6    	27.98189
403.0000      	24813.9    	28.81987
404.0000      	24752.5    	29.78511
405.0000      	24691.4    	30.87317
406.0000      	24630.5    	31.79926
407.0000      	24570    	32.93731
408.0000      	24509.8    	33.87734
409.0000      	24449.9    	34.84483
410.0000      	24390.2    	35.99563
411.0000      	24330.9    	37.07391
412.0000      	24271.8    	37.63314
413.0000      	24213.1    	38.74105
414.0000      	24154.6    	39.94447
415.0000      	24096.4    	40.80886
416.0000      	24038.5    	41.43421
417.0000      	23980.8    	41.87617
418.0000      	23923.4    	42.20791
419.0000      	23866.3    	42.56170
420.0000      	23809.5    	43.03308
421.0000      	23753    	43.19803
422.0000      	23696.7    	43.55888
423.0000      	23640.7    	43.85037
424.0000      	23584.9    	44.25391
425.0000      	23529.4    	44.77271
426.0000      	23474.2    	45.30975
427.0000      	23419.2    	45.66304
428.0000      	23364.5    	45.74943
429.0000      	23310    	45.98987
430.0000      	23255.8    	46.08615
431.0000      	23201.9    	46.44639
432.0000      	23148.1    	46.97796
433.0000      	23094.7    	47.47118
434.0000      	23041.5    	47.75691
435.0000      	22988.5    	48.15354
436.0000      	22935.8    	48.45597
437.0000      	22883.3    	48.79801
438.0000      	22831.1    	48.81416
439.0000      	22779    	49.07276
440.0000      	22727.3    	49.32641
441.0000      	22675.7    	49.31783
442.0000      	22624.4    	49.12038
443.0000      	22573.4    	49.21235
444.0000      	22522.5    	49.26583
445.0000      	22471.9    	49.19275
446.0000      	22421.5    	49.08773
447.0000      	22371.4    	48.97467
448.0000      	22321.4    	48.81953
449.0000      	22271.7    	48.57069
450.0000      	22222.2    	48.35073
451.0000      	22172.9    	48.20385
452.0000      	22123.9    	48.42223
453.0000      	22075.1    	48.52893
454.0000      	22026.4    	48.62894
455.0000      	21978    	48.62338
456.0000      	21929.8    	48.67843
457.0000      	21881.8    	48.75819
458.0000      	21834.1    	48.83262
459.0000      	21786.5    	48.95699
460.0000      	21739.1    	49.15191
461.0000      	21692    	49.26571
462.0000      	21645    	49.25420
463.0000      	21598.3    	49.18468
464.0000      	21551.7    	49.18329
465.0000      	21505.4    	49.41814
466.0000      	21459.2    	49.61507
467.0000      	21413.3    	49.62128
468.0000      	21367.5    	49.74864
469.0000      	21322    	49.96600
470.0000      	21276.6    	50.15157
471.0000      	21231.4    	50.37641
472.0000      	21186.4    	50.65133
473.0000      	21141.6    	50.90744
474.0000      	21097    	51.21290
475.0000      	21052.6    	51.41184
476.0000      	21008.4    	51.63035
477.0000      	20964.4    	51.86816
478.0000      	20920.5    	51.96593
479.0000      	20876.8    	52.07415
480.0000      	20833.3    	52.26218
481.0000      	20790    	52.55723
482.0000      	20746.9    	52.83988
483.0000      	20703.9    	53.07490
484.0000      	20661.2    	53.26913
485.0000      	20618.6    	53.35307
486.0000      	20576.1    	53.52979
487.0000      	20533.9    	53.81416
488.0000      	20491.8    	54.13158
489.0000      	20449.9    	54.41618
490.0000      	20408.2    	54.56495
491.0000      	20366.6    	54.75435
492.0000      	20325.2    	54.88447
493.0000      	20284    	55.21039
494.0000      	20242.9    	55.46740
495.0000      	20202    	55.62389
496.0000      	20161.3    	55.75270
497.0000      	20120.7    	55.88215
498.0000      	20080.3    	56.03177
499.0000      	20040.1    	56.11692
500.0000      	20000    	56.22050
501.0000      	19960.1    	56.24084
502.0000      	19920.3    	56.26832
503.0000      	19880.7    	56.33685
504.0000      	19841.3    	56.36909
505.0000      	19802    	56.25043
506.0000      	19762.8    	56.17994
507.0000      	19723.9    	56.02134
508.0000      	19685    	55.85281
509.0000      	19646.4    	55.58034
510.0000      	19607.8    	55.31980
511.0000      	19569.5    	55.05207
512.0000      	19531.2    	54.73957
513.0000      	19493.2    	54.47612
514.0000      	19455.3    	53.92511
515.0000      	19417.5    	53.45475
516.0000      	19379.8    	53.04000
517.0000      	19342.4    	52.48848
518.0000      	19305    	51.84696
519.0000      	19267.8    	51.52184
520.0000      	19230.8    	50.88418
521.0000      	19193.9    	50.21067
522.0000      	19157.1    	49.58469
523.0000      	19120.5    	49.00213
524.0000      	19084    	48.39269
525.0000      	19047.6    	47.76522
526.0000      	19011.4    	47.49443
527.0000      	18975.3    	47.01712
528.0000      	18939.4    	46.49574
529.0000      	18903.6    	46.07244
530.0000      	18867.9    	45.66436
531.0000      	18832.4    	45.33812
532.0000      	18797    	45.05463
533.0000      	18761.7    	44.92136
534.0000      	18726.6    	44.65852
535.0000      	18691.6    	44.36934
536.0000      	18656.7    	44.13229
537.0000      	18622    	43.92602
538.0000      	18587.4    	43.90768
539.0000      	18552.9    	43.91074
540.0000      	18518.5    	43.88503
541.0000      	18484.3    	43.72102
542.0000      	18450.2    	43.62384
543.0000      	18416.2    	43.67870
544.0000      	18382.4    	43.63437
545.0000      	18348.6    	43.57812
546.0000      	18315    	43.48077
547.0000      	18281.5    	43.49384
548.0000      	18248.2    	43.41776
549.0000      	18214.9    	43.24312
550.0000      	18181.8    	43.04779
551.0000      	18148.8    	42.92508
552.0000      	18115.9    	42.61634
553.0000      	18083.2    	42.26591
554.0000      	18050.5    	41.83656
555.0000      	18018    	41.39438
556.0000      	17985.6    	40.97198
557.0000      	17953.3    	40.56995
558.0000      	17921.1    	40.34230
559.0000      	17889.1    	39.79457
560.0000      	17857.1    	39.24055
561.0000      	17825.3    	38.76998
562.0000      	17793.6    	38.32872
563.0000      	17762    	37.92209
564.0000      	17730.5    	37.72104
565.0000      	17699.1    	37.36131
566.0000      	17667.8    	37.03929
567.0000      	17636.7    	36.71311
568.0000      	17605.6    	36.48479
569.0000      	17574.7    	36.35458
570.0000      	17543.9    	36.33624
571.0000      	17513.1    	36.31399
572.0000      	17482.5    	36.35268
573.0000      	17452    	36.48075
574.0000      	17421.6    	36.73412
575.0000      	17391.3    	36.91505
576.0000      	17361.1    	37.29903
577.0000      	17331    	37.73207
578.0000      	17301    	38.30445
579.0000      	17271.2    	39.01347
580.0000      	17241.4    	39.67303
581.0000      	17211.7    	40.01805
582.0000      	17182.1    	40.76408
583.0000      	17152.7    	41.44191
584.0000      	17123.3    	42.06872
585.0000      	17094    	42.79931
586.0000      	17064.8    	43.49874
587.0000      	17035.8    	43.84948
588.0000      	17006.8    	44.42212
589.0000      	16977.9    	44.97294
590.0000      	16949.2    	45.45878
591.0000      	16920.5    	45.98070
592.0000      	16891.9    	46.42825
593.0000      	16863.4    	46.61138
594.0000      	16835    	46.87756
595.0000      	16806.7    	47.23927
596.0000      	16778.5    	47.47843
597.0000      	16750.4    	47.68854
598.0000      	16722.4    	47.79202
599.0000      	16694.5    	47.76156
600.0000      	16666.7    	47.74224
601.0000      	16638.9    	47.86894
602.0000      	16611.3    	48.01641
603.0000      	16583.7    	47.95049
604.0000      	16556.3    	47.83232
605.0000      	16528.9    	47.77237
606.0000      	16501.7    	47.83747
607.0000      	16474.5    	47.84856
608.0000      	16447.4    	47.66965
609.0000      	16420.4    	47.67144
610.0000      	16393.4    	47.69698
611.0000      	16366.6    	47.77096
612.0000      	16339.9    	47.79338
613.0000      	16313.2    	47.79491
614.0000      	16286.6    	47.81463
615.0000      	16260.2    	47.82726
616.0000      	16233.8    	47.81885
617.0000      	16207.5    	47.78453
618.0000      	16181.2    	47.68963
619.0000      	16155.1    	47.74277
620.0000      	16129    	47.82201
621.0000      	16103.1    	47.88016
622.0000      	16077.2    	47.85311
623.0000      	16051.4    	47.80317
624.0000      	16025.6    	47.74508
625.0000      	16000    	47.81702
626.0000      	15974.4    	47.89961
627.0000      	15949    	48.01280
628.0000      	15923.6    	48.08038
629.0000      	15898.3    	48.11597
630.0000      	15873    	48.10762
631.0000      	15847.9    	48.22551
632.0000      	15822.8    	48.28862
633.0000      	15797.8    	48.50223
634.0000      	15772.9    	48.61010
635.0000      	15748    	48.80532
636.0000      	15723.3    	48.80426
637.0000      	15698.6    	48.90861
638.0000      	15674    	49.04614
639.0000      	15649.5    	49.42407
640.0000      	15625    	49.64646
641.0000      	15600.6    	49.85565
642.0000      	15576.3    	49.92146
643.0000      	15552.1    	50.23388
644.0000      	15528    	50.60452
645.0000      	15503.9    	50.99085
646.0000      	15479.9    	51.32690
647.0000      	15456    	51.42383
648.0000      	15432.1    	51.77337
649.0000      	15408.3    	52.17453
650.0000      	15384.6    	52.54283
651.0000      	15361    	52.72677
652.0000      	15337.4    	53.11765
653.0000      	15313.9    	53.30645
654.0000      	15290.5    	53.72119
655.0000      	15267.2    	54.10632
656.0000      	15243.9    	54.50343
657.0000      	15220.7    	54.77663
658.0000      	15197.6    	54.91410
659.0000      	15174.5    	55.15024
660.0000      	15151.5    	55.69200
661.0000      	15128.6    	56.04568
662.0000      	15105.7    	56.35481
663.0000      	15083    	56.43726
664.0000      	15060.2    	56.70042
665.0000      	15037.6    	56.81662
666.0000      	15015    	57.00741
667.0000      	14992.5    	57.19950
668.0000      	14970.1    	57.34463
669.0000      	14947.7    	57.51447
670.0000      	14925.4    	57.54634
671.0000      	14903.1    	57.45138
672.0000      	14881    	57.41346
673.0000      	14858.8    	57.44507
674.0000      	14836.8    	57.48711
675.0000      	14814.8    	57.51528
676.0000      	14792.9    	57.45438
677.0000      	14771    	57.38190
678.0000      	14749.3    	57.34837
679.0000      	14727.5    	57.33688
680.0000      	14705.9    	57.22466
681.0000      	14684.3    	56.95877
682.0000      	14662.8    	56.78965
683.0000      	14641.3    	56.63560
684.0000      	14619.9    	56.47757
685.0000      	14598.5    	56.26229
686.0000      	14577.3    	56.11985
687.0000      	14556    	55.98219
688.0000      	14534.9    	55.90028
689.0000      	14513.8    	55.72472
690.0000      	14492.8    	55.65313
691.0000      	14471.8    	55.54243
692.0000      	14450.9    	55.27210
693.0000      	14430    	55.18401
694.0000      	14409.2    	55.21245
695.0000      	14388.5    	55.39954
696.0000      	14367.8    	55.31252
697.0000      	14347.2    	54.98771
698.0000      	14326.6    	54.89594
699.0000      	14306.2    	54.77052
700.0000      	14285.7    	54.80746
701.0000      	14265.3    	54.69445
702.0000      	14245    	54.48238
703.0000      	14224.8    	54.34301
704.0000      	14204.5    	53.96487
705.0000      	14184.4    	53.76255
706.0000      	14164.3    	53.66645
707.0000      	14144.3    	53.76544
708.0000      	14124.3    	53.73270
709.0000      	14104.4    	53.67490
710.0000      	14084.5    	53.52274
711.0000      	14064.7    	53.46379
712.0000      	14044.9    	53.30413
713.0000      	14025.2    	53.31179
714.0000      	14005.6    	53.29139
715.0000      	13986    	53.42253
716.0000      	13966.5    	53.38054
717.0000      	13947    	53.48485
718.0000      	13927.6    	53.58379
719.0000      	13908.2    	53.92155
720.0000      	13888.9    	54.06066
721.0000      	13869.6    	54.27587
722.0000      	13850.4    	54.56669
723.0000      	13831.3    	54.71417
724.0000      	13812.2    	54.96524
725.0000      	13793.1    	55.35725
726.0000      	13774.1    	55.84360
727.0000      	13755.2    	55.87576
728.0000      	13736.3    	55.89833
729.0000      	13717.4    	56.15203
730.0000      	13698.6    	56.68252
731.0000      	13679.9    	57.17650
732.0000      	13661.2    	57.40944
733.0000      	13642.6    	57.83108
734.0000      	13624    	58.27982
735.0000      	13605.4    	58.71999
736.0000      	13587    	59.32788
737.0000      	13568.5    	59.73195
738.0000      	13550.1    	60.79514
739.0000      	13531.8    	61.46365
740.0000      	13513.5    	62.13118
741.0000      	13495.3    	62.77787
742.0000      	13477.1    	63.16435
743.0000      	13459    	64.12431
744.0000      	13440.9    	64.94945
745.0000      	13422.8    	65.69851
746.0000      	13404.8    	66.21033
747.0000      	13386.9    	66.67151
748.0000      	13369    	67.86201
749.0000      	13351.1    	68.87998
750.0000      	13333.3    	69.80546
751.0000      	13315.6    	70.24393
752.0000      	13297.9    	71.13995
753.0000      	13280.2    	72.45491
754.0000      	13262.6    	73.81500
755.0000      	13245    	74.97900
756.0000      	13227.5    	75.48018
757.0000      	13210    	76.29845
758.0000      	13192.6    	77.05035
759.0000      	13175.2    	77.91932
760.0000      	13157.9    	78.84258
761.0000      	13140.6    	79.29292
762.0000      	13123.4    	79.99238
763.0000      	13106.2    	80.54865
764.0000      	13089    	81.00381
765.0000      	13071.9    	81.09878
766.0000      	13054.8    	81.49861
767.0000      	13037.8    	81.91428
768.0000      	13020.8    	82.42255
769.0000      	13003.9    	82.68003
770.0000      	12987    	82.80879
771.0000      	12970.2    	83.07346
772.0000      	12953.4    	83.51326
773.0000      	12936.6    	84.04636
774.0000      	12919.9    	84.26492
775.0000      	12903.2    	84.21822
776.0000      	12886.6    	84.04129
777.0000      	12870    	84.35703
778.0000      	12853.5    	84.45345
779.0000      	12837    	84.75462
780.0000      	12820.5    	84.49044
781.0000      	12804.1    	84.49786
782.0000      	12787.7    	84.52279
783.0000      	12771.4    	84.84212
784.0000      	12755.1    	84.93462
785.0000      	12738.9    	85.30087
786.0000      	12722.6    	85.53712
787.0000      	12706.5    	85.57014
788.0000      	12690.4    	85.78082
789.0000      	12674.3    	85.52934
790.0000      	12658.2    	85.60902
791.0000      	12642.2    	85.27949
792.0000      	12626.3    	84.76343
793.0000      	12610.3    	84.59639
794.0000      	12594.5    	84.62875
795.0000      	12578.6    	85.17104
796.0000      	12562.8    	85.25227
797.0000      	12547.1    	85.37476
798.0000      	12531.3    	85.22622
799.0000      	12515.6    	85.43118
800.0000      	12500    	85.66268