File: data/Reflectance_measurements/Reflectance_2019_material/25_white/25_white_3.txt
Unit Serial No : 240-IM0P2424-EU
Integration Time : 10 ms
Time Average: 10
Binning Average: 2
FFT Smoothing: 0%
Project Name : RPS900-R
Sample Name :  SM240-IMOP2424-EU
Measurement No : 1
Measurement Time : 06/03/2019   14:50:55

Wavelength(nm)	Wavenumber(1/cm)	Transmittance(%)
300.0000      	33333.3    	14.85246
301.0000      	33222.6    	16.24681
302.0000      	33112.6    	16.78849
303.0000      	33003.3    	15.72146
304.0000      	32894.7    	13.71406
305.0000      	32786.9    	12.63952
306.0000      	32679.7    	13.52102
307.0000      	32573.3    	14.08667
308.0000      	32467.5    	13.76214
309.0000      	32362.5    	11.54790
310.0000      	32258.1    	10.82363
311.0000      	32154.3    	10.91782
312.0000      	32051.3    	11.33233
313.0000      	31948.9    	11.40909
314.0000      	31847.1    	10.98711
315.0000      	31746    	10.67863
316.0000      	31645.6    	10.87683
317.0000      	31545.7    	10.89047
318.0000      	31446.5    	10.64024
319.0000      	31348    	10.66306
320.0000      	31250    	10.13208
321.0000      	31152.6    	9.26916
322.0000      	31055.9    	9.37337
323.0000      	30959.8    	9.55745
324.0000      	30864.2    	9.38797
325.0000      	30769.2    	8.97290
326.0000      	30674.8    	8.67226
327.0000      	30581    	8.51831
328.0000      	30487.8    	8.56028
329.0000      	30395.1    	8.54952
330.0000      	30303    	8.61109
331.0000      	30211.5    	8.44076
332.0000      	30120.5    	8.89433
333.0000      	30030    	8.86530
334.0000      	29940.1    	9.25073
335.0000      	29850.7    	8.78404
336.0000      	29761.9    	8.26271
337.0000      	29673.6    	8.41376
338.0000      	29585.8    	8.87768
339.0000      	29498.5    	9.05421
340.0000      	29411.8    	9.02958
341.0000      	29325.5    	9.10260
342.0000      	29239.8    	8.98914
343.0000      	29154.5    	8.73402
344.0000      	29069.8    	8.73575
345.0000      	28985.5    	9.06741
346.0000      	28901.7    	9.30800
347.0000      	28818.4    	9.17704
348.0000      	28735.6    	9.08270
349.0000      	28653.3    	9.18206
350.0000      	28571.4    	9.70743
351.0000      	28490    	10.06569
352.0000      	28409.1    	9.97028
353.0000      	28328.6    	9.86654
354.0000      	28248.6    	9.92562
355.0000      	28169    	10.05401
356.0000      	28089.9    	10.79932
357.0000      	28011.2    	10.92475
358.0000      	27933    	11.09375
359.0000      	27855.2    	11.33920
360.0000      	27777.8    	11.76138
361.0000      	27700.8    	11.97575
362.0000      	27624.3    	12.11349
363.0000      	27548.2    	12.20364
364.0000      	27472.5    	12.09815
365.0000      	27397.3    	12.15149
366.0000      	27322.4    	12.61423
367.0000      	27248    	13.04295
368.0000      	27173.9    	13.27724
369.0000      	27100.3    	13.31890
370.0000      	27027    	13.56079
371.0000      	26954.2    	13.66067
372.0000      	26881.7    	14.21975
373.0000      	26809.7    	14.55368
374.0000      	26738    	14.85611
375.0000      	26666.7    	15.02646
376.0000      	26595.7    	15.35086
377.0000      	26525.2    	15.75941
378.0000      	26455    	16.25651
379.0000      	26385.2    	16.88195
380.0000      	26315.8    	17.24715
381.0000      	26246.7    	17.56019
382.0000      	26178    	17.73328
383.0000      	26109.7    	18.21908
384.0000      	26041.7    	18.61638
385.0000      	25974    	19.10302
386.0000      	25906.7    	19.55459
387.0000      	25839.8    	19.91594
388.0000      	25773.2    	20.26249
389.0000      	25706.9    	21.00836
390.0000      	25641    	21.55257
391.0000      	25575.4    	21.66484
392.0000      	25510.2    	21.70780
393.0000      	25445.3    	22.23059
394.0000      	25380.7    	22.98406
395.0000      	25316.5    	23.62928
396.0000      	25252.5    	24.21805
397.0000      	25188.9    	24.77575
398.0000      	25125.6    	25.31831
399.0000      	25062.7    	26.02473
400.0000      	25000    	26.97081
401.0000      	24937.7    	27.86002
402.0000      	24875.6    	28.25066
403.0000      	24813.9    	28.92903
404.0000      	24752.5    	29.78531
405.0000      	24691.4    	30.87397
406.0000      	24630.5    	31.93949
407.0000      	24570    	32.95369
408.0000      	24509.8    	33.85017
409.0000      	24449.9    	34.88399
410.0000      	24390.2    	36.08722
411.0000      	24330.9    	37.27646
412.0000      	24271.8    	37.82775
413.0000      	24213.1    	38.83331
414.0000      	24154.6    	39.74638
415.0000      	24096.4    	40.40685
416.0000      	24038.5    	41.13754
417.0000      	23980.8    	41.84719
418.0000      	23923.4    	42.26324
419.0000      	23866.3    	42.59633
420.0000      	23809.5    	42.81386
421.0000      	23753    	43.08036
422.0000      	23696.7    	43.53009
423.0000      	23640.7    	44.15645
424.0000      	23584.9    	44.47805
425.0000      	23529.4    	44.66426
426.0000      	23474.2    	44.91370
427.0000      	23419.2    	45.40918
428.0000      	23364.5    	45.76702
429.0000      	23310    	46.12512
430.0000      	23255.8    	46.31899
431.0000      	23201.9    	46.58640
432.0000      	23148.1    	46.94862
433.0000      	23094.7    	47.43399
434.0000      	23041.5    	47.93243
435.0000      	22988.5    	48.30997
436.0000      	22935.8    	48.52042
437.0000      	22883.3    	48.79420
438.0000      	22831.1    	48.80027
439.0000      	22779    	49.00581
440.0000      	22727.3    	49.28564
441.0000      	22675.7    	49.42646
442.0000      	22624.4    	49.21973
443.0000      	22573.4    	49.22143
444.0000      	22522.5    	49.32241
445.0000      	22471.9    	49.19694
446.0000      	22421.5    	49.04105
447.0000      	22371.4    	48.86671
448.0000      	22321.4    	48.58116
449.0000      	22271.7    	48.43063
450.0000      	22222.2    	48.28840
451.0000      	22172.9    	48.27974
452.0000      	22123.9    	48.38559
453.0000      	22075.1    	48.57338
454.0000      	22026.4    	48.80297
455.0000      	21978    	48.84927
456.0000      	21929.8    	49.00800
457.0000      	21881.8    	48.91249
458.0000      	21834.1    	48.83952
459.0000      	21786.5    	48.80984
460.0000      	21739.1    	48.87243
461.0000      	21692    	49.03305
462.0000      	21645    	49.15274
463.0000      	21598.3    	49.37666
464.0000      	21551.7    	49.40834
465.0000      	21505.4    	49.58538
466.0000      	21459.2    	49.76840
467.0000      	21413.3    	49.84077
468.0000      	21367.5    	49.87799
469.0000      	21322    	50.02386
470.0000      	21276.6    	50.19993
471.0000      	21231.4    	50.46518
472.0000      	21186.4    	50.75515
473.0000      	21141.6    	51.01092
474.0000      	21097    	51.29764
475.0000      	21052.6    	51.47616
476.0000      	21008.4    	51.63453
477.0000      	20964.4    	51.79868
478.0000      	20920.5    	51.94736
479.0000      	20876.8    	52.20259
480.0000      	20833.3    	52.39006
481.0000      	20790    	52.57756
482.0000      	20746.9    	52.89329
483.0000      	20703.9    	53.17412
484.0000      	20661.2    	53.34629
485.0000      	20618.6    	53.41095
486.0000      	20576.1    	53.57329
487.0000      	20533.9    	53.77713
488.0000      	20491.8    	54.02353
489.0000      	20449.9    	54.31500
490.0000      	20408.2    	54.59024
491.0000      	20366.6    	54.88872
492.0000      	20325.2    	55.02123
493.0000      	20284    	55.19603
494.0000      	20242.9    	55.26237
495.0000      	20202    	55.37803
496.0000      	20161.3    	55.61899
497.0000      	20120.7    	55.83665
498.0000      	20080.3    	55.97579
499.0000      	20040.1    	56.05191
500.0000      	20000    	56.12748
501.0000      	19960.1    	56.24289
502.0000      	19920.3    	56.32468
503.0000      	19880.7    	56.37837
504.0000      	19841.3    	56.44270
505.0000      	19802    	56.33100
506.0000      	19762.8    	56.26130
507.0000      	19723.9    	56.05132
508.0000      	19685    	55.86304
509.0000      	19646.4    	55.62255
510.0000      	19607.8    	55.32909
511.0000      	19569.5    	55.05824
512.0000      	19531.2    	54.64193
513.0000      	19493.2    	54.37621
514.0000      	19455.3    	53.89979
515.0000      	19417.5    	53.41009
516.0000      	19379.8    	52.91143
517.0000      	19342.4    	52.33634
518.0000      	19305    	51.72447
519.0000      	19267.8    	51.40838
520.0000      	19230.8    	50.82173
521.0000      	19193.9    	50.17465
522.0000      	19157.1    	49.53325
523.0000      	19120.5    	48.91026
524.0000      	19084    	48.37668
525.0000      	19047.6    	47.80046
526.0000      	19011.4    	47.52546
527.0000      	18975.3    	46.98000
528.0000      	18939.4    	46.48447
529.0000      	18903.6    	46.08862
530.0000      	18867.9    	45.78854
531.0000      	18832.4    	45.50249
532.0000      	18797    	45.11703
533.0000      	18761.7    	44.94487
534.0000      	18726.6    	44.64680
535.0000      	18691.6    	44.40599
536.0000      	18656.7    	44.20699
537.0000      	18622    	44.09809
538.0000      	18587.4    	43.96505
539.0000      	18552.9    	43.89536
540.0000      	18518.5    	43.79504
541.0000      	18484.3    	43.73835
542.0000      	18450.2    	43.72485
543.0000      	18416.2    	43.72901
544.0000      	18382.4    	43.68461
545.0000      	18348.6    	43.60881
546.0000      	18315    	43.43360
547.0000      	18281.5    	43.38883
548.0000      	18248.2    	43.37038
549.0000      	18214.9    	43.18341
550.0000      	18181.8    	42.93009
551.0000      	18148.8    	42.77532
552.0000      	18115.9    	42.43894
553.0000      	18083.2    	42.10207
554.0000      	18050.5    	41.76444
555.0000      	18018    	41.38848
556.0000      	17985.6    	40.95142
557.0000      	17953.3    	40.52613
558.0000      	17921.1    	40.35434
559.0000      	17889.1    	39.90705
560.0000      	17857.1    	39.42332
561.0000      	17825.3    	38.93980
562.0000      	17793.6    	38.51131
563.0000      	17762    	37.99099
564.0000      	17730.5    	37.74390
565.0000      	17699.1    	37.31659
566.0000      	17667.8    	37.00303
567.0000      	17636.7    	36.74906
568.0000      	17605.6    	36.55406
569.0000      	17574.7    	36.43921
570.0000      	17543.9    	36.38419
571.0000      	17513.1    	36.30909
572.0000      	17482.5    	36.34387
573.0000      	17452    	36.57276
574.0000      	17421.6    	36.80482
575.0000      	17391.3    	36.94238
576.0000      	17361.1    	37.29177
577.0000      	17331    	37.81065
578.0000      	17301    	38.30929
579.0000      	17271.2    	38.90649
580.0000      	17241.4    	39.55763
581.0000      	17211.7    	39.94120
582.0000      	17182.1    	40.74849
583.0000      	17152.7    	41.53119
584.0000      	17123.3    	42.14998
585.0000      	17094    	42.79029
586.0000      	17064.8    	43.41519
587.0000      	17035.8    	43.75232
588.0000      	17006.8    	44.38126
589.0000      	16977.9    	45.00287
590.0000      	16949.2    	45.56079
591.0000      	16920.5    	46.04405
592.0000      	16891.9    	46.47429
593.0000      	16863.4    	46.62228
594.0000      	16835    	46.92013
595.0000      	16806.7    	47.16769
596.0000      	16778.5    	47.31077
597.0000      	16750.4    	47.48571
598.0000      	16722.4    	47.66204
599.0000      	16694.5    	47.70372
600.0000      	16666.7    	47.76109
601.0000      	16638.9    	47.80304
602.0000      	16611.3    	47.89460
603.0000      	16583.7    	47.86462
604.0000      	16556.3    	47.81824
605.0000      	16528.9    	47.79609
606.0000      	16501.7    	47.85779
607.0000      	16474.5    	47.81502
608.0000      	16447.4    	47.69327
609.0000      	16420.4    	47.71939
610.0000      	16393.4    	47.76325
611.0000      	16366.6    	47.85019
612.0000      	16339.9    	47.91171
613.0000      	16313.2    	47.88482
614.0000      	16286.6    	47.84140
615.0000      	16260.2    	47.76434
616.0000      	16233.8    	47.70496
617.0000      	16207.5    	47.70531
618.0000      	16181.2    	47.77670
619.0000      	16155.1    	47.92043
620.0000      	16129    	47.95621
621.0000      	16103.1    	47.94767
622.0000      	16077.2    	47.81657
623.0000      	16051.4    	47.75715
624.0000      	16025.6    	47.75537
625.0000      	16000    	47.80145
626.0000      	15974.4    	47.86798
627.0000      	15949    	47.92839
628.0000      	15923.6    	48.03482
629.0000      	15898.3    	48.16233
630.0000      	15873    	48.21357
631.0000      	15847.9    	48.20442
632.0000      	15822.8    	48.22060
633.0000      	15797.8    	48.41845
634.0000      	15772.9    	48.62696
635.0000      	15748    	48.83757
636.0000      	15723.3    	48.90595
637.0000      	15698.6    	49.07047
638.0000      	15674    	49.16108
639.0000      	15649.5    	49.35732
640.0000      	15625    	49.65221
641.0000      	15600.6    	49.90541
642.0000      	15576.3    	49.99327
643.0000      	15552.1    	50.19191
644.0000      	15528    	50.52016
645.0000      	15503.9    	50.94937
646.0000      	15479.9    	51.39116
647.0000      	15456    	51.55911
648.0000      	15432.1    	51.78817
649.0000      	15408.3    	52.01246
650.0000      	15384.6    	52.40795
651.0000      	15361    	52.75243
652.0000      	15337.4    	53.17396
653.0000      	15313.9    	53.34385
654.0000      	15290.5    	53.66388
655.0000      	15267.2    	54.02449
656.0000      	15243.9    	54.44476
657.0000      	15220.7    	54.85927
658.0000      	15197.6    	55.05262
659.0000      	15174.5    	55.28933
660.0000      	15151.5    	55.60218
661.0000      	15128.6    	55.88835
662.0000      	15105.7    	56.28786
663.0000      	15083    	56.47834
664.0000      	15060.2    	56.74816
665.0000      	15037.6    	56.89360
666.0000      	15015    	57.01399
667.0000      	14992.5    	57.11225
668.0000      	14970.1    	57.17929
669.0000      	14947.7    	57.42397
670.0000      	14925.4    	57.58655
671.0000      	14903.1    	57.74569
672.0000      	14881    	57.61418
673.0000      	14858.8    	57.62148
674.0000      	14836.8    	57.54061
675.0000      	14814.8    	57.41936
676.0000      	14792.9    	57.23595
677.0000      	14771    	57.11447
678.0000      	14749.3    	57.10412
679.0000      	14727.5    	57.09666
680.0000      	14705.9    	56.96394
681.0000      	14684.3    	56.75787
682.0000      	14662.8    	56.67289
683.0000      	14641.3    	56.57758
684.0000      	14619.9    	56.46545
685.0000      	14598.5    	56.13918
686.0000      	14577.3    	55.99162
687.0000      	14556    	55.84200
688.0000      	14534.9    	55.78898
689.0000      	14513.8    	55.52609
690.0000      	14492.8    	55.35330
691.0000      	14471.8    	55.28304
692.0000      	14450.9    	55.23440
693.0000      	14430    	55.24167
694.0000      	14409.2    	55.25430
695.0000      	14388.5    	55.17728
696.0000      	14367.8    	54.99538
697.0000      	14347.2    	54.87724
698.0000      	14326.6    	54.95398
699.0000      	14306.2    	55.09524
700.0000      	14285.7    	55.01266
701.0000      	14265.3    	54.72313
702.0000      	14245    	54.48210
703.0000      	14224.8    	54.37271
704.0000      	14204.5    	54.15331
705.0000      	14184.4    	54.11587
706.0000      	14164.3    	53.89338
707.0000      	14144.3    	53.79206
708.0000      	14124.3    	53.73519
709.0000      	14104.4    	53.67798
710.0000      	14084.5    	53.60958
711.0000      	14064.7    	53.61829
712.0000      	14044.9    	53.53030
713.0000      	14025.2    	53.43797
714.0000      	14005.6    	53.19099
715.0000      	13986    	53.28399
716.0000      	13966.5    	53.46954
717.0000      	13947    	53.74628
718.0000      	13927.6    	53.76360
719.0000      	13908.2    	53.98902
720.0000      	13888.9    	54.05814
721.0000      	13869.6    	54.16434
722.0000      	13850.4    	54.39100
723.0000      	13831.3    	54.65166
724.0000      	13812.2    	55.11584
725.0000      	13793.1    	55.36447
726.0000      	13774.1    	55.76813
727.0000      	13755.2    	56.05678
728.0000      	13736.3    	56.20244
729.0000      	13717.4    	56.58338
730.0000      	13698.6    	56.84669
731.0000      	13679.9    	57.17495
732.0000      	13661.2    	57.33564
733.0000      	13642.6    	57.86453
734.0000      	13624    	58.54691
735.0000      	13605.4    	59.09985
736.0000      	13587    	59.54598
737.0000      	13568.5    	59.82991
738.0000      	13550.1    	60.73369
739.0000      	13531.8    	61.31005
740.0000      	13513.5    	61.82774
741.0000      	13495.3    	62.43803
742.0000      	13477.1    	62.89020
743.0000      	13459    	63.88727
744.0000      	13440.9    	64.86982
745.0000      	13422.8    	65.85949
746.0000      	13404.8    	66.60491
747.0000      	13386.9    	67.08670
748.0000      	13369    	67.93825
749.0000      	13351.1    	68.84136
750.0000      	13333.3    	69.80834
751.0000      	13315.6    	70.42467
752.0000      	13297.9    	71.47457
753.0000      	13280.2    	72.68320
754.0000      	13262.6    	73.72082
755.0000      	13245    	74.59516
756.0000      	13227.5    	75.03231
757.0000      	13210    	75.71322
758.0000      	13192.6    	76.56197
759.0000      	13175.2    	77.54469
760.0000      	13157.9    	78.62920
761.0000      	13140.6    	79.17815
762.0000      	13123.4    	79.98666
763.0000      	13106.2    	80.50520
764.0000      	13089    	80.95464
765.0000      	13071.9    	81.26388
766.0000      	13054.8    	81.72611
767.0000      	13037.8    	81.96633
768.0000      	13020.8    	82.13201
769.0000      	13003.9    	82.49795
770.0000      	12987    	82.75762
771.0000      	12970.2    	83.22227
772.0000      	12953.4    	83.44833
773.0000      	12936.6    	83.74635
774.0000      	12919.9    	83.97356
775.0000      	12903.2    	84.24862
776.0000      	12886.6    	84.39674
777.0000      	12870    	84.44315
778.0000      	12853.5    	84.34409
779.0000      	12837    	84.57894
780.0000      	12820.5    	84.56007
781.0000      	12804.1    	84.45094
782.0000      	12787.7    	84.28481
783.0000      	12771.4    	84.47240
784.0000      	12755.1    	84.61885
785.0000      	12738.9    	85.01580
786.0000      	12722.6    	85.06359
787.0000      	12706.5    	84.94064
788.0000      	12690.4    	85.28195
789.0000      	12674.3    	85.25970
790.0000      	12658.2    	85.38653
791.0000      	12642.2    	84.99052
792.0000      	12626.3    	85.01172
793.0000      	12610.3    	84.88961
794.0000      	12594.5    	85.03480
795.0000      	12578.6    	85.13315
796.0000      	12562.8    	85.01641
797.0000      	12547.1    	85.11080
798.0000      	12531.3    	85.08590
799.0000      	12515.6    	85.19946
800.0000      	12500    	85.32114