File: data/Reflectance_measurements/Reflectance_2019_material/75_white/75_w_2.txt
Unit Serial No : 240-IM0P2424-EU
Integration Time : 10 ms
Time Average: 10
Binning Average: 2
FFT Smoothing: 0%
Project Name : RPS900-R
Sample Name :  SM240-IMOP2424-EU
Measurement No : 1
Measurement Time : 06/03/2019   16:46:42

Wavelength(nm)	Wavenumber(1/cm)	Transmittance(%)
300.0000      	33333.3    	10.07554
301.0000      	33222.6    	9.48454
302.0000      	33112.6    	8.36051
303.0000      	33003.3    	7.67179
304.0000      	32894.7    	7.77317
305.0000      	32786.9    	8.12928
306.0000      	32679.7    	7.81243
307.0000      	32573.3    	8.01256
308.0000      	32467.5    	7.96543
309.0000      	32362.5    	8.21619
310.0000      	32258.1    	7.65101
311.0000      	32154.3    	7.47960
312.0000      	32051.3    	7.22663
313.0000      	31948.9    	7.05044
314.0000      	31847.1    	7.27622
315.0000      	31746    	7.75356
316.0000      	31645.6    	7.61468
317.0000      	31545.7    	7.09746
318.0000      	31446.5    	6.86671
319.0000      	31348    	6.26058
320.0000      	31250    	6.11030
321.0000      	31152.6    	6.15580
322.0000      	31055.9    	6.36582
323.0000      	30959.8    	6.34689
324.0000      	30864.2    	6.42972
325.0000      	30769.2    	5.86442
326.0000      	30674.8    	5.82595
327.0000      	30581    	5.86618
328.0000      	30487.8    	6.11339
329.0000      	30395.1    	5.78361
330.0000      	30303    	5.78485
331.0000      	30211.5    	6.03885
332.0000      	30120.5    	6.12228
333.0000      	30030    	5.88148
334.0000      	29940.1    	5.72241
335.0000      	29850.7    	5.45345
336.0000      	29761.9    	5.55540
337.0000      	29673.6    	5.51580
338.0000      	29585.8    	5.65496
339.0000      	29498.5    	5.40122
340.0000      	29411.8    	5.45589
341.0000      	29325.5    	5.21232
342.0000      	29239.8    	5.42770
343.0000      	29154.5    	5.39796
344.0000      	29069.8    	5.18837
345.0000      	28985.5    	5.31491
346.0000      	28901.7    	5.22246
347.0000      	28818.4    	5.28809
348.0000      	28735.6    	5.17156
349.0000      	28653.3    	5.34408
350.0000      	28571.4    	5.35525
351.0000      	28490    	5.28525
352.0000      	28409.1    	5.27394
353.0000      	28328.6    	5.34981
354.0000      	28248.6    	5.39991
355.0000      	28169    	5.37193
356.0000      	28089.9    	5.34118
357.0000      	28011.2    	5.08041
358.0000      	27933    	5.07979
359.0000      	27855.2    	5.16692
360.0000      	27777.8    	5.43611
361.0000      	27700.8    	5.62039
362.0000      	27624.3    	5.55569
363.0000      	27548.2    	5.50036
364.0000      	27472.5    	5.46295
365.0000      	27397.3    	5.63262
366.0000      	27322.4    	5.69956
367.0000      	27248    	5.49024
368.0000      	27173.9    	5.35746
369.0000      	27100.3    	5.43547
370.0000      	27027    	5.60396
371.0000      	26954.2    	5.71636
372.0000      	26881.7    	5.88185
373.0000      	26809.7    	5.79162
374.0000      	26738    	5.77620
375.0000      	26666.7    	5.79471
376.0000      	26595.7    	5.89777
377.0000      	26525.2    	5.96386
378.0000      	26455    	5.92724
379.0000      	26385.2    	5.91106
380.0000      	26315.8    	5.98213
381.0000      	26246.7    	6.10229
382.0000      	26178    	6.24073
383.0000      	26109.7    	6.43144
384.0000      	26041.7    	6.43516
385.0000      	25974    	6.36461
386.0000      	25906.7    	6.32137
387.0000      	25839.8    	6.48508
388.0000      	25773.2    	6.74176
389.0000      	25706.9    	6.77276
390.0000      	25641    	6.83214
391.0000      	25575.4    	6.97743
392.0000      	25510.2    	7.04639
393.0000      	25445.3    	7.11160
394.0000      	25380.7    	7.25214
395.0000      	25316.5    	7.30682
396.0000      	25252.5    	7.24885
397.0000      	25188.9    	7.33636
398.0000      	25125.6    	7.55464
399.0000      	25062.7    	7.86191
400.0000      	25000    	7.93163
401.0000      	24937.7    	7.88047
402.0000      	24875.6    	7.89948
403.0000      	24813.9    	7.86357
404.0000      	24752.5    	8.07731
405.0000      	24691.4    	8.37540
406.0000      	24630.5    	8.47255
407.0000      	24570    	8.48481
408.0000      	24509.8    	8.54465
409.0000      	24449.9    	8.68324
410.0000      	24390.2    	8.86438
411.0000      	24330.9    	9.01613
412.0000      	24271.8    	9.07494
413.0000      	24213.1    	9.09156
414.0000      	24154.6    	9.12572
415.0000      	24096.4    	9.22861
416.0000      	24038.5    	9.28718
417.0000      	23980.8    	9.32411
418.0000      	23923.4    	9.37996
419.0000      	23866.3    	9.36224
420.0000      	23809.5    	9.34096
421.0000      	23753    	9.37714
422.0000      	23696.7    	9.59368
423.0000      	23640.7    	9.67652
424.0000      	23584.9    	9.71548
425.0000      	23529.4    	9.77430
426.0000      	23474.2    	9.85540
427.0000      	23419.2    	9.95233
428.0000      	23364.5    	9.87878
429.0000      	23310    	9.87490
430.0000      	23255.8    	9.86740
431.0000      	23201.9    	9.96562
432.0000      	23148.1    	10.14243
433.0000      	23094.7    	10.23519
434.0000      	23041.5    	10.29737
435.0000      	22988.5    	10.40440
436.0000      	22935.8    	10.44385
437.0000      	22883.3    	10.48617
438.0000      	22831.1    	10.52040
439.0000      	22779    	10.70253
440.0000      	22727.3    	10.75249
441.0000      	22675.7    	10.63494
442.0000      	22624.4    	10.63263
443.0000      	22573.4    	10.82172
444.0000      	22522.5    	10.95247
445.0000      	22471.9    	10.91608
446.0000      	22421.5    	10.92189
447.0000      	22371.4    	10.87519
448.0000      	22321.4    	10.99969
449.0000      	22271.7    	11.04647
450.0000      	22222.2    	11.09126
451.0000      	22172.9    	11.16739
452.0000      	22123.9    	11.28282
453.0000      	22075.1    	11.38437
454.0000      	22026.4    	11.53293
455.0000      	21978    	11.57413
456.0000      	21929.8    	11.65551
457.0000      	21881.8    	11.60699
458.0000      	21834.1    	11.65579
459.0000      	21786.5    	11.81999
460.0000      	21739.1    	11.97751
461.0000      	21692    	12.04813
462.0000      	21645    	12.04952
463.0000      	21598.3    	12.08467
464.0000      	21551.7    	12.15037
465.0000      	21505.4    	12.23130
466.0000      	21459.2    	12.29072
467.0000      	21413.3    	12.43909
468.0000      	21367.5    	12.53938
469.0000      	21322    	12.68086
470.0000      	21276.6    	12.76257
471.0000      	21231.4    	12.92794
472.0000      	21186.4    	13.05501
473.0000      	21141.6    	13.17570
474.0000      	21097    	13.33343
475.0000      	21052.6    	13.51764
476.0000      	21008.4    	13.70951
477.0000      	20964.4    	13.85486
478.0000      	20920.5    	13.90640
479.0000      	20876.8    	14.06161
480.0000      	20833.3    	14.20689
481.0000      	20790    	14.37881
482.0000      	20746.9    	14.55181
483.0000      	20703.9    	14.74326
484.0000      	20661.2    	14.85752
485.0000      	20618.6    	14.92538
486.0000      	20576.1    	15.05224
487.0000      	20533.9    	15.21601
488.0000      	20491.8    	15.38488
489.0000      	20449.9    	15.53598
490.0000      	20408.2    	15.69814
491.0000      	20366.6    	15.87248
492.0000      	20325.2    	15.97127
493.0000      	20284    	16.10937
494.0000      	20242.9    	16.24227
495.0000      	20202    	16.31478
496.0000      	20161.3    	16.42176
497.0000      	20120.7    	16.53122
498.0000      	20080.3    	16.64103
499.0000      	20040.1    	16.69237
500.0000      	20000    	16.78207
501.0000      	19960.1    	16.81919
502.0000      	19920.3    	16.81376
503.0000      	19880.7    	16.86519
504.0000      	19841.3    	16.92710
505.0000      	19802    	16.89000
506.0000      	19762.8    	16.84894
507.0000      	19723.9    	16.73081
508.0000      	19685    	16.64760
509.0000      	19646.4    	16.51316
510.0000      	19607.8    	16.37836
511.0000      	19569.5    	16.26729
512.0000      	19531.2    	16.06624
513.0000      	19493.2    	15.93309
514.0000      	19455.3    	15.61854
515.0000      	19417.5    	15.34108
516.0000      	19379.8    	15.08658
517.0000      	19342.4    	14.77946
518.0000      	19305    	14.45550
519.0000      	19267.8    	14.29448
520.0000      	19230.8    	13.97863
521.0000      	19193.9    	13.64068
522.0000      	19157.1    	13.34273
523.0000      	19120.5    	13.06768
524.0000      	19084    	12.76864
525.0000      	19047.6    	12.43272
526.0000      	19011.4    	12.30879
527.0000      	18975.3    	12.04358
528.0000      	18939.4    	11.83572
529.0000      	18903.6    	11.59285
530.0000      	18867.9    	11.40618
531.0000      	18832.4    	11.26242
532.0000      	18797    	11.12912
533.0000      	18761.7    	11.06152
534.0000      	18726.6    	10.90007
535.0000      	18691.6    	10.78224
536.0000      	18656.7    	10.68565
537.0000      	18622    	10.61082
538.0000      	18587.4    	10.57629
539.0000      	18552.9    	10.56367
540.0000      	18518.5    	10.54955
541.0000      	18484.3    	10.50068
542.0000      	18450.2    	10.45968
543.0000      	18416.2    	10.40878
544.0000      	18382.4    	10.37509
545.0000      	18348.6    	10.34449
546.0000      	18315    	10.30911
547.0000      	18281.5    	10.30114
548.0000      	18248.2    	10.27802
549.0000      	18214.9    	10.21879
550.0000      	18181.8    	10.15545
551.0000      	18148.8    	10.11939
552.0000      	18115.9    	9.99000
553.0000      	18083.2    	9.87500
554.0000      	18050.5    	9.74463
555.0000      	18018    	9.59428
556.0000      	17985.6    	9.42452
557.0000      	17953.3    	9.25023
558.0000      	17921.1    	9.17027
559.0000      	17889.1    	9.03141
560.0000      	17857.1    	8.80021
561.0000      	17825.3    	8.61745
562.0000      	17793.6    	8.45942
563.0000      	17762    	8.36049
564.0000      	17730.5    	8.27780
565.0000      	17699.1    	8.15704
566.0000      	17667.8    	8.09368
567.0000      	17636.7    	8.08193
568.0000      	17605.6    	8.00857
569.0000      	17574.7    	7.96264
570.0000      	17543.9    	7.95667
571.0000      	17513.1    	7.96991
572.0000      	17482.5    	7.98169
573.0000      	17452    	8.03214
574.0000      	17421.6    	8.13887
575.0000      	17391.3    	8.19633
576.0000      	17361.1    	8.31289
577.0000      	17331    	8.48135
578.0000      	17301    	8.66449
579.0000      	17271.2    	8.88378
580.0000      	17241.4    	9.11728
581.0000      	17211.7    	9.24742
582.0000      	17182.1    	9.51420
583.0000      	17152.7    	9.70952
584.0000      	17123.3    	9.95407
585.0000      	17094    	10.21375
586.0000      	17064.8    	10.53837
587.0000      	17035.8    	10.68984
588.0000      	17006.8    	10.96012
589.0000      	16977.9    	11.12835
590.0000      	16949.2    	11.35636
591.0000      	16920.5    	11.68305
592.0000      	16891.9    	11.90948
593.0000      	16863.4    	12.00338
594.0000      	16835    	12.13952
595.0000      	16806.7    	12.26417
596.0000      	16778.5    	12.41325
597.0000      	16750.4    	12.50906
598.0000      	16722.4    	12.57754
599.0000      	16694.5    	12.60639
600.0000      	16666.7    	12.65481
601.0000      	16638.9    	12.68647
602.0000      	16611.3    	12.75428
603.0000      	16583.7    	12.74915
604.0000      	16556.3    	12.73580
605.0000      	16528.9    	12.71640
606.0000      	16501.7    	12.72730
607.0000      	16474.5    	12.73454
608.0000      	16447.4    	12.79658
609.0000      	16420.4    	12.84791
610.0000      	16393.4    	12.81082
611.0000      	16366.6    	12.71532
612.0000      	16339.9    	12.68813
613.0000      	16313.2    	12.72929
614.0000      	16286.6    	12.81496
615.0000      	16260.2    	12.82934
616.0000      	16233.8    	12.81557
617.0000      	16207.5    	12.82090
618.0000      	16181.2    	12.80552
619.0000      	16155.1    	12.77118
620.0000      	16129    	12.74854
621.0000      	16103.1    	12.74845
622.0000      	16077.2    	12.79887
623.0000      	16051.4    	12.87416
624.0000      	16025.6    	12.90192
625.0000      	16000    	12.94179
626.0000      	15974.4    	12.97879
627.0000      	15949    	12.97395
628.0000      	15923.6    	12.99923
629.0000      	15898.3    	12.97216
630.0000      	15873    	13.01828
631.0000      	15847.9    	13.03275
632.0000      	15822.8    	13.03458
633.0000      	15797.8    	13.05043
634.0000      	15772.9    	13.10214
635.0000      	15748    	13.17028
636.0000      	15723.3    	13.18070
637.0000      	15698.6    	13.20977
638.0000      	15674    	13.29575
639.0000      	15649.5    	13.36916
640.0000      	15625    	13.45353
641.0000      	15600.6    	13.45877
642.0000      	15576.3    	13.45771
643.0000      	15552.1    	13.53741
644.0000      	15528    	13.66500
645.0000      	15503.9    	13.80395
646.0000      	15479.9    	13.94035
647.0000      	15456    	13.97987
648.0000      	15432.1    	14.09348
649.0000      	15408.3    	14.14268
650.0000      	15384.6    	14.22778
651.0000      	15361    	14.32722
652.0000      	15337.4    	14.45088
653.0000      	15313.9    	14.52758
654.0000      	15290.5    	14.68328
655.0000      	15267.2    	14.81520
656.0000      	15243.9    	14.95028
657.0000      	15220.7    	15.11263
658.0000      	15197.6    	15.18933
659.0000      	15174.5    	15.30945
660.0000      	15151.5    	15.46314
661.0000      	15128.6    	15.56941
662.0000      	15105.7    	15.68247
663.0000      	15083    	15.72476
664.0000      	15060.2    	15.81379
665.0000      	15037.6    	15.88361
666.0000      	15015    	16.04497
667.0000      	14992.5    	16.15878
668.0000      	14970.1    	16.22382
669.0000      	14947.7    	16.23958
670.0000      	14925.4    	16.25810
671.0000      	14903.1    	16.30024
672.0000      	14881    	16.34669
673.0000      	14858.8    	16.33023
674.0000      	14836.8    	16.33095
675.0000      	14814.8    	16.33088
676.0000      	14792.9    	16.27605
677.0000      	14771    	16.25127
678.0000      	14749.3    	16.21116
679.0000      	14727.5    	16.17254
680.0000      	14705.9    	16.09590
681.0000      	14684.3    	16.05236
682.0000      	14662.8    	15.96731
683.0000      	14641.3    	15.97795
684.0000      	14619.9    	15.97455
685.0000      	14598.5    	15.88942
686.0000      	14577.3    	15.76799
687.0000      	14556    	15.68402
688.0000      	14534.9    	15.59293
689.0000      	14513.8    	15.48193
690.0000      	14492.8    	15.45839
691.0000      	14471.8    	15.36374
692.0000      	14450.9    	15.33604
693.0000      	14430    	15.33816
694.0000      	14409.2    	15.37058
695.0000      	14388.5    	15.31537
696.0000      	14367.8    	15.18263
697.0000      	14347.2    	15.12951
698.0000      	14326.6    	15.12690
699.0000      	14306.2    	15.12735
700.0000      	14285.7    	14.94222
701.0000      	14265.3    	14.76267
702.0000      	14245    	14.72750
703.0000      	14224.8    	14.71591
704.0000      	14204.5    	14.62562
705.0000      	14184.4    	14.55149
706.0000      	14164.3    	14.44776
707.0000      	14144.3    	14.32764
708.0000      	14124.3    	14.25261
709.0000      	14104.4    	14.18052
710.0000      	14084.5    	14.12345
711.0000      	14064.7    	14.14345
712.0000      	14044.9    	14.11866
713.0000      	14025.2    	14.13274
714.0000      	14005.6    	14.03643
715.0000      	13986    	14.14176
716.0000      	13966.5    	14.25626
717.0000      	13947    	14.28426
718.0000      	13927.6    	14.30615
719.0000      	13908.2    	14.37907
720.0000      	13888.9    	14.44016
721.0000      	13869.6    	14.60959
722.0000      	13850.4    	14.71720
723.0000      	13831.3    	14.77009
724.0000      	13812.2    	14.86651
725.0000      	13793.1    	15.10476
726.0000      	13774.1    	15.37410
727.0000      	13755.2    	15.63675
728.0000      	13736.3    	15.73313
729.0000      	13717.4    	15.86419
730.0000      	13698.6    	15.96198
731.0000      	13679.9    	16.29625
732.0000      	13661.2    	16.52110
733.0000      	13642.6    	16.87191
734.0000      	13624    	16.98041
735.0000      	13605.4    	17.17601
736.0000      	13587    	17.48743
737.0000      	13568.5    	17.69163
738.0000      	13550.1    	18.14427
739.0000      	13531.8    	18.58385
740.0000      	13513.5    	19.12868
741.0000      	13495.3    	19.58805
742.0000      	13477.1    	19.76047
743.0000      	13459    	20.24791
744.0000      	13440.9    	20.87890
745.0000      	13422.8    	21.59883
746.0000      	13404.8    	22.16393
747.0000      	13386.9    	22.43389
748.0000      	13369    	23.22322
749.0000      	13351.1    	24.13378
750.0000      	13333.3    	25.09608
751.0000      	13315.6    	25.45126
752.0000      	13297.9    	26.28541
753.0000      	13280.2    	27.07761
754.0000      	13262.6    	27.85518
755.0000      	13245    	29.04314
756.0000      	13227.5    	29.60527
757.0000      	13210    	30.81973
758.0000      	13192.6    	31.77993
759.0000      	13175.2    	32.67631
760.0000      	13157.9    	33.71860
761.0000      	13140.6    	34.15269
762.0000      	13123.4    	35.01552
763.0000      	13106.2    	35.71471
764.0000      	13089    	36.33831
765.0000      	13071.9    	36.80250
766.0000      	13054.8    	37.53927
767.0000      	13037.8    	38.04435
768.0000      	13020.8    	38.60009
769.0000      	13003.9    	39.35927
770.0000      	12987    	39.72192
771.0000      	12970.2    	40.36202
772.0000      	12953.4    	40.67146
773.0000      	12936.6    	40.88869
774.0000      	12919.9    	41.08088
775.0000      	12903.2    	41.77275
776.0000      	12886.6    	42.44193
777.0000      	12870    	42.69046
778.0000      	12853.5    	42.38572
779.0000      	12837    	42.54952
780.0000      	12820.5    	42.98046
781.0000      	12804.1    	43.51530
782.0000      	12787.7    	43.67020
783.0000      	12771.4    	43.44780
784.0000      	12755.1    	43.27808
785.0000      	12738.9    	43.35343
786.0000      	12722.6    	43.89017
787.0000      	12706.5    	44.39830
788.0000      	12690.4    	44.55426
789.0000      	12674.3    	44.48071
790.0000      	12658.2    	44.26858
791.0000      	12642.2    	44.06363
792.0000      	12626.3    	44.46212
793.0000      	12610.3    	44.70055
794.0000      	12594.5    	44.74860
795.0000      	12578.6    	44.67102
796.0000      	12562.8    	44.80190
797.0000      	12547.1    	44.83730
798.0000      	12531.3    	44.76083
799.0000      	12515.6    	44.52847
800.0000      	12500    	44.65659