File: data/Reflectance_measurements/Reflectance_2019_material/75_white/75_w_1.txt
Unit Serial No : 240-IM0P2424-EU
Integration Time : 10 ms
Time Average: 10
Binning Average: 2
FFT Smoothing: 0%
Project Name : RPS900-R
Sample Name :  SM240-IMOP2424-EU
Measurement No : 1
Measurement Time : 06/03/2019   16:46:30

Wavelength(nm)	Wavenumber(1/cm)	Transmittance(%)
300.0000      	33333.3    	8.70597
301.0000      	33222.6    	8.52765
302.0000      	33112.6    	8.98516
303.0000      	33003.3    	8.82170
304.0000      	32894.7    	8.13513
305.0000      	32786.9    	7.82282
306.0000      	32679.7    	8.24451
307.0000      	32573.3    	9.01889
308.0000      	32467.5    	8.41805
309.0000      	32362.5    	7.64854
310.0000      	32258.1    	6.74337
311.0000      	32154.3    	6.82818
312.0000      	32051.3    	7.72841
313.0000      	31948.9    	7.54526
314.0000      	31847.1    	7.33773
315.0000      	31746    	6.89217
316.0000      	31645.6    	6.75637
317.0000      	31545.7    	7.24748
318.0000      	31446.5    	7.27121
319.0000      	31348    	6.86332
320.0000      	31250    	6.28821
321.0000      	31152.6    	6.30643
322.0000      	31055.9    	6.66049
323.0000      	30959.8    	6.60417
324.0000      	30864.2    	6.31619
325.0000      	30769.2    	5.84281
326.0000      	30674.8    	5.89753
327.0000      	30581    	5.80468
328.0000      	30487.8    	5.77427
329.0000      	30395.1    	5.76587
330.0000      	30303    	5.94388
331.0000      	30211.5    	6.06414
332.0000      	30120.5    	6.07702
333.0000      	30030    	5.89015
334.0000      	29940.1    	6.04119
335.0000      	29850.7    	5.75425
336.0000      	29761.9    	5.49888
337.0000      	29673.6    	5.36852
338.0000      	29585.8    	5.72781
339.0000      	29498.5    	5.71612
340.0000      	29411.8    	5.74522
341.0000      	29325.5    	5.58431
342.0000      	29239.8    	5.71586
343.0000      	29154.5    	5.44064
344.0000      	29069.8    	5.38824
345.0000      	28985.5    	5.68232
346.0000      	28901.7    	5.41635
347.0000      	28818.4    	5.41260
348.0000      	28735.6    	5.03487
349.0000      	28653.3    	5.31602
350.0000      	28571.4    	5.33557
351.0000      	28490    	5.30571
352.0000      	28409.1    	5.11954
353.0000      	28328.6    	5.21161
354.0000      	28248.6    	5.06836
355.0000      	28169    	5.01869
356.0000      	28089.9    	5.28526
357.0000      	28011.2    	5.29779
358.0000      	27933    	5.15680
359.0000      	27855.2    	5.09913
360.0000      	27777.8    	5.19996
361.0000      	27700.8    	5.35431
362.0000      	27624.3    	5.40924
363.0000      	27548.2    	5.44725
364.0000      	27472.5    	5.35026
365.0000      	27397.3    	5.22245
366.0000      	27322.4    	5.40755
367.0000      	27248    	5.27769
368.0000      	27173.9    	5.44484
369.0000      	27100.3    	5.49938
370.0000      	27027    	5.65794
371.0000      	26954.2    	5.71213
372.0000      	26881.7    	5.66226
373.0000      	26809.7    	5.61548
374.0000      	26738    	5.73393
375.0000      	26666.7    	5.87581
376.0000      	26595.7    	5.76643
377.0000      	26525.2    	5.70026
378.0000      	26455    	5.72823
379.0000      	26385.2    	6.00068
380.0000      	26315.8    	6.26115
381.0000      	26246.7    	6.10109
382.0000      	26178    	6.05564
383.0000      	26109.7    	6.09100
384.0000      	26041.7    	6.13413
385.0000      	25974    	6.14022
386.0000      	25906.7    	6.23067
387.0000      	25839.8    	6.47931
388.0000      	25773.2    	6.69358
389.0000      	25706.9    	6.78828
390.0000      	25641    	6.78944
391.0000      	25575.4    	6.87214
392.0000      	25510.2    	6.85005
393.0000      	25445.3    	6.91602
394.0000      	25380.7    	7.10818
395.0000      	25316.5    	7.24668
396.0000      	25252.5    	7.26197
397.0000      	25188.9    	7.39052
398.0000      	25125.6    	7.50622
399.0000      	25062.7    	7.68993
400.0000      	25000    	7.66142
401.0000      	24937.7    	7.73513
402.0000      	24875.6    	7.75905
403.0000      	24813.9    	7.83534
404.0000      	24752.5    	7.92841
405.0000      	24691.4    	8.14029
406.0000      	24630.5    	8.35861
407.0000      	24570    	8.50403
408.0000      	24509.8    	8.61470
409.0000      	24449.9    	8.77748
410.0000      	24390.2    	8.92351
411.0000      	24330.9    	9.06216
412.0000      	24271.8    	9.17333
413.0000      	24213.1    	9.27867
414.0000      	24154.6    	9.24572
415.0000      	24096.4    	9.20507
416.0000      	24038.5    	9.29518
417.0000      	23980.8    	9.37958
418.0000      	23923.4    	9.35731
419.0000      	23866.3    	9.37574
420.0000      	23809.5    	9.44335
421.0000      	23753    	9.51701
422.0000      	23696.7    	9.65879
423.0000      	23640.7    	9.68200
424.0000      	23584.9    	9.75738
425.0000      	23529.4    	9.86633
426.0000      	23474.2    	9.87247
427.0000      	23419.2    	9.95311
428.0000      	23364.5    	9.99272
429.0000      	23310    	10.07543
430.0000      	23255.8    	10.05168
431.0000      	23201.9    	10.00941
432.0000      	23148.1    	10.03822
433.0000      	23094.7    	10.14007
434.0000      	23041.5    	10.23132
435.0000      	22988.5    	10.37835
436.0000      	22935.8    	10.49017
437.0000      	22883.3    	10.56685
438.0000      	22831.1    	10.61069
439.0000      	22779    	10.71736
440.0000      	22727.3    	10.69356
441.0000      	22675.7    	10.58824
442.0000      	22624.4    	10.63547
443.0000      	22573.4    	10.76087
444.0000      	22522.5    	11.02492
445.0000      	22471.9    	11.12203
446.0000      	22421.5    	11.14528
447.0000      	22371.4    	11.00786
448.0000      	22321.4    	10.95624
449.0000      	22271.7    	11.02494
450.0000      	22222.2    	11.10127
451.0000      	22172.9    	11.21430
452.0000      	22123.9    	11.28532
453.0000      	22075.1    	11.35955
454.0000      	22026.4    	11.46540
455.0000      	21978    	11.48751
456.0000      	21929.8    	11.58226
457.0000      	21881.8    	11.59944
458.0000      	21834.1    	11.73561
459.0000      	21786.5    	11.82885
460.0000      	21739.1    	11.88123
461.0000      	21692    	11.98473
462.0000      	21645    	12.01410
463.0000      	21598.3    	12.06960
464.0000      	21551.7    	12.09850
465.0000      	21505.4    	12.18908
466.0000      	21459.2    	12.22256
467.0000      	21413.3    	12.36191
468.0000      	21367.5    	12.59534
469.0000      	21322    	12.75565
470.0000      	21276.6    	12.81665
471.0000      	21231.4    	12.90068
472.0000      	21186.4    	13.05782
473.0000      	21141.6    	13.16801
474.0000      	21097    	13.23892
475.0000      	21052.6    	13.38871
476.0000      	21008.4    	13.60309
477.0000      	20964.4    	13.81262
478.0000      	20920.5    	13.89420
479.0000      	20876.8    	14.10394
480.0000      	20833.3    	14.24924
481.0000      	20790    	14.31761
482.0000      	20746.9    	14.43968
483.0000      	20703.9    	14.66847
484.0000      	20661.2    	14.83930
485.0000      	20618.6    	14.91636
486.0000      	20576.1    	15.05362
487.0000      	20533.9    	15.23185
488.0000      	20491.8    	15.37168
489.0000      	20449.9    	15.50400
490.0000      	20408.2    	15.68326
491.0000      	20366.6    	15.86894
492.0000      	20325.2    	15.96195
493.0000      	20284    	16.08453
494.0000      	20242.9    	16.23015
495.0000      	20202    	16.35407
496.0000      	20161.3    	16.46393
497.0000      	20120.7    	16.57766
498.0000      	20080.3    	16.64326
499.0000      	20040.1    	16.69762
500.0000      	20000    	16.77198
501.0000      	19960.1    	16.84068
502.0000      	19920.3    	16.91273
503.0000      	19880.7    	16.98140
504.0000      	19841.3    	16.97165
505.0000      	19802    	16.90249
506.0000      	19762.8    	16.88519
507.0000      	19723.9    	16.80551
508.0000      	19685    	16.74051
509.0000      	19646.4    	16.57363
510.0000      	19607.8    	16.39837
511.0000      	19569.5    	16.21472
512.0000      	19531.2    	16.01690
513.0000      	19493.2    	15.93305
514.0000      	19455.3    	15.70658
515.0000      	19417.5    	15.41998
516.0000      	19379.8    	15.08875
517.0000      	19342.4    	14.75688
518.0000      	19305    	14.43253
519.0000      	19267.8    	14.27499
520.0000      	19230.8    	13.95825
521.0000      	19193.9    	13.66939
522.0000      	19157.1    	13.36383
523.0000      	19120.5    	13.06258
524.0000      	19084    	12.78822
525.0000      	19047.6    	12.46370
526.0000      	19011.4    	12.34003
527.0000      	18975.3    	12.04724
528.0000      	18939.4    	11.80853
529.0000      	18903.6    	11.54637
530.0000      	18867.9    	11.32245
531.0000      	18832.4    	11.13991
532.0000      	18797    	10.99481
533.0000      	18761.7    	10.94373
534.0000      	18726.6    	10.82084
535.0000      	18691.6    	10.72696
536.0000      	18656.7    	10.63804
537.0000      	18622    	10.58456
538.0000      	18587.4    	10.56152
539.0000      	18552.9    	10.55243
540.0000      	18518.5    	10.50157
541.0000      	18484.3    	10.44583
542.0000      	18450.2    	10.40479
543.0000      	18416.2    	10.36155
544.0000      	18382.4    	10.40598
545.0000      	18348.6    	10.40850
546.0000      	18315    	10.37971
547.0000      	18281.5    	10.32520
548.0000      	18248.2    	10.28500
549.0000      	18214.9    	10.26053
550.0000      	18181.8    	10.20313
551.0000      	18148.8    	10.15649
552.0000      	18115.9    	10.04359
553.0000      	18083.2    	9.94943
554.0000      	18050.5    	9.80867
555.0000      	18018    	9.61781
556.0000      	17985.6    	9.38966
557.0000      	17953.3    	9.17025
558.0000      	17921.1    	9.06644
559.0000      	17889.1    	8.94088
560.0000      	17857.1    	8.75862
561.0000      	17825.3    	8.60890
562.0000      	17793.6    	8.45346
563.0000      	17762    	8.34207
564.0000      	17730.5    	8.26943
565.0000      	17699.1    	8.16890
566.0000      	17667.8    	8.08367
567.0000      	17636.7    	8.05304
568.0000      	17605.6    	8.01258
569.0000      	17574.7    	7.97417
570.0000      	17543.9    	7.96748
571.0000      	17513.1    	7.97478
572.0000      	17482.5    	7.97940
573.0000      	17452    	8.04845
574.0000      	17421.6    	8.14157
575.0000      	17391.3    	8.20823
576.0000      	17361.1    	8.30334
577.0000      	17331    	8.47626
578.0000      	17301    	8.61371
579.0000      	17271.2    	8.81684
580.0000      	17241.4    	9.04450
581.0000      	17211.7    	9.18186
582.0000      	17182.1    	9.43416
583.0000      	17152.7    	9.66347
584.0000      	17123.3    	9.94921
585.0000      	17094    	10.26910
586.0000      	17064.8    	10.56276
587.0000      	17035.8    	10.68879
588.0000      	17006.8    	10.96699
589.0000      	16977.9    	11.20175
590.0000      	16949.2    	11.42069
591.0000      	16920.5    	11.61339
592.0000      	16891.9    	11.81382
593.0000      	16863.4    	11.90780
594.0000      	16835    	12.10412
595.0000      	16806.7    	12.23753
596.0000      	16778.5    	12.34898
597.0000      	16750.4    	12.44862
598.0000      	16722.4    	12.51387
599.0000      	16694.5    	12.57336
600.0000      	16666.7    	12.61641
601.0000      	16638.9    	12.67618
602.0000      	16611.3    	12.68862
603.0000      	16583.7    	12.69490
604.0000      	16556.3    	12.70060
605.0000      	16528.9    	12.77271
606.0000      	16501.7    	12.79790
607.0000      	16474.5    	12.74600
608.0000      	16447.4    	12.73603
609.0000      	16420.4    	12.76873
610.0000      	16393.4    	12.79279
611.0000      	16366.6    	12.75983
612.0000      	16339.9    	12.70289
613.0000      	16313.2    	12.66500
614.0000      	16286.6    	12.73309
615.0000      	16260.2    	12.76583
616.0000      	16233.8    	12.78365
617.0000      	16207.5    	12.78930
618.0000      	16181.2    	12.81320
619.0000      	16155.1    	12.77052
620.0000      	16129    	12.74866
621.0000      	16103.1    	12.73866
622.0000      	16077.2    	12.76360
623.0000      	16051.4    	12.86683
624.0000      	16025.6    	12.92398
625.0000      	16000    	12.95717
626.0000      	15974.4    	12.94488
627.0000      	15949    	12.92413
628.0000      	15923.6    	12.96614
629.0000      	15898.3    	12.96283
630.0000      	15873    	13.02759
631.0000      	15847.9    	13.08422
632.0000      	15822.8    	13.11060
633.0000      	15797.8    	13.13427
634.0000      	15772.9    	13.18041
635.0000      	15748    	13.21165
636.0000      	15723.3    	13.20528
637.0000      	15698.6    	13.24390
638.0000      	15674    	13.30727
639.0000      	15649.5    	13.34660
640.0000      	15625    	13.44149
641.0000      	15600.6    	13.47850
642.0000      	15576.3    	13.48848
643.0000      	15552.1    	13.56328
644.0000      	15528    	13.60934
645.0000      	15503.9    	13.70075
646.0000      	15479.9    	13.86363
647.0000      	15456    	13.93970
648.0000      	15432.1    	14.04970
649.0000      	15408.3    	14.07202
650.0000      	15384.6    	14.15594
651.0000      	15361    	14.31188
652.0000      	15337.4    	14.48166
653.0000      	15313.9    	14.55740
654.0000      	15290.5    	14.69017
655.0000      	15267.2    	14.81578
656.0000      	15243.9    	14.95530
657.0000      	15220.7    	15.11255
658.0000      	15197.6    	15.15755
659.0000      	15174.5    	15.26750
660.0000      	15151.5    	15.45139
661.0000      	15128.6    	15.66836
662.0000      	15105.7    	15.77407
663.0000      	15083    	15.78270
664.0000      	15060.2    	15.87956
665.0000      	15037.6    	15.92549
666.0000      	15015    	16.03537
667.0000      	14992.5    	16.11303
668.0000      	14970.1    	16.20367
669.0000      	14947.7    	16.29441
670.0000      	14925.4    	16.34020
671.0000      	14903.1    	16.42090
672.0000      	14881    	16.41321
673.0000      	14858.8    	16.38564
674.0000      	14836.8    	16.32409
675.0000      	14814.8    	16.26394
676.0000      	14792.9    	16.25040
677.0000      	14771    	16.23453
678.0000      	14749.3    	16.19222
679.0000      	14727.5    	16.09634
680.0000      	14705.9    	16.06376
681.0000      	14684.3    	16.12415
682.0000      	14662.8    	16.11959
683.0000      	14641.3    	16.11061
684.0000      	14619.9    	15.99315
685.0000      	14598.5    	15.81146
686.0000      	14577.3    	15.71476
687.0000      	14556    	15.77412
688.0000      	14534.9    	15.73043
689.0000      	14513.8    	15.54670
690.0000      	14492.8    	15.46459
691.0000      	14471.8    	15.44631
692.0000      	14450.9    	15.49469
693.0000      	14430    	15.49277
694.0000      	14409.2    	15.45845
695.0000      	14388.5    	15.33442
696.0000      	14367.8    	15.19211
697.0000      	14347.2    	15.13218
698.0000      	14326.6    	15.08489
699.0000      	14306.2    	15.06707
700.0000      	14285.7    	14.95741
701.0000      	14265.3    	14.82994
702.0000      	14245    	14.74608
703.0000      	14224.8    	14.73071
704.0000      	14204.5    	14.65729
705.0000      	14184.4    	14.51572
706.0000      	14164.3    	14.40486
707.0000      	14144.3    	14.38383
708.0000      	14124.3    	14.33224
709.0000      	14104.4    	14.20789
710.0000      	14084.5    	14.26640
711.0000      	14064.7    	14.19042
712.0000      	14044.9    	14.16069
713.0000      	14025.2    	14.12060
714.0000      	14005.6    	14.09131
715.0000      	13986    	14.02906
716.0000      	13966.5    	14.14170
717.0000      	13947    	14.30094
718.0000      	13927.6    	14.37553
719.0000      	13908.2    	14.50036
720.0000      	13888.9    	14.55359
721.0000      	13869.6    	14.70282
722.0000      	13850.4    	14.73324
723.0000      	13831.3    	14.81594
724.0000      	13812.2    	15.10711
725.0000      	13793.1    	15.28734
726.0000      	13774.1    	15.42766
727.0000      	13755.2    	15.66023
728.0000      	13736.3    	15.82863
729.0000      	13717.4    	15.90514
730.0000      	13698.6    	15.95812
731.0000      	13679.9    	16.21278
732.0000      	13661.2    	16.39200
733.0000      	13642.6    	16.72689
734.0000      	13624    	16.94895
735.0000      	13605.4    	17.19334
736.0000      	13587    	17.42838
737.0000      	13568.5    	17.57165
738.0000      	13550.1    	18.10763
739.0000      	13531.8    	18.49399
740.0000      	13513.5    	18.96528
741.0000      	13495.3    	19.34335
742.0000      	13477.1    	19.62506
743.0000      	13459    	20.18834
744.0000      	13440.9    	20.89168
745.0000      	13422.8    	21.57620
746.0000      	13404.8    	22.25576
747.0000      	13386.9    	22.55147
748.0000      	13369    	23.32619
749.0000      	13351.1    	24.23437
750.0000      	13333.3    	25.22071
751.0000      	13315.6    	25.68025
752.0000      	13297.9    	26.52046
753.0000      	13280.2    	27.39296
754.0000      	13262.6    	28.33125
755.0000      	13245    	29.41647
756.0000      	13227.5    	29.88475
757.0000      	13210    	30.92964
758.0000      	13192.6    	31.88795
759.0000      	13175.2    	32.81995
760.0000      	13157.9    	33.82924
761.0000      	13140.6    	34.32524
762.0000      	13123.4    	35.35311
763.0000      	13106.2    	36.25655
764.0000      	13089    	36.80912
765.0000      	13071.9    	37.13100
766.0000      	13054.8    	37.71553
767.0000      	13037.8    	38.32158
768.0000      	13020.8    	38.95382
769.0000      	13003.9    	39.63596
770.0000      	12987    	39.90717
771.0000      	12970.2    	40.59537
772.0000      	12953.4    	41.02132
773.0000      	12936.6    	41.31697
774.0000      	12919.9    	41.37725
775.0000      	12903.2    	41.96702
776.0000      	12886.6    	42.60123
777.0000      	12870    	43.00494
778.0000      	12853.5    	42.80670
779.0000      	12837    	43.00067
780.0000      	12820.5    	43.13090
781.0000      	12804.1    	43.41480
782.0000      	12787.7    	43.41512
783.0000      	12771.4    	43.37648
784.0000      	12755.1    	43.31701
785.0000      	12738.9    	43.35546
786.0000      	12722.6    	43.71448
787.0000      	12706.5    	44.27604
788.0000      	12690.4    	44.40794
789.0000      	12674.3    	44.49928
790.0000      	12658.2    	44.27792
791.0000      	12642.2    	44.10643
792.0000      	12626.3    	44.38762
793.0000      	12610.3    	44.79342
794.0000      	12594.5    	45.18686
795.0000      	12578.6    	45.14497
796.0000      	12562.8    	44.98109
797.0000      	12547.1    	45.02010
798.0000      	12531.3    	45.12568
799.0000      	12515.6    	45.02621
800.0000      	12500    	44.88719